 # Tag              Time [sec]                Mass [g]             posx [code]             posy [code]             velx [code]             vely [code]             accx [code]             accy [code]
     2      0.315360000000E+06      0.397800000000E+34      0.149565227280E+14     -0.313119665942E+12     -0.207835635210E+05     -0.992750928955E+06     -0.658946216889E-01      0.137952532857E-02
     2      0.946080000000E+06      0.397800000000E+34      0.149303131672E+14     -0.938810292149E+12     -0.623142697935E+05     -0.991011248797E+06     -0.657791490549E-01      0.413615852862E-02
     2      0.157680000000E+07      0.397800000000E+34      0.148779399749E+14     -0.156285576287E+13     -0.103735777581E+06     -0.987534937068E+06     -0.655484061392E-01      0.688554359371E-02
     2      0.220752000000E+07      0.397800000000E+34      0.147994949288E+14     -0.218416251124E+13     -0.144975500525E+06     -0.982328085599E+06     -0.652027972916E-01      0.962286254748E-02
     2      0.283824000000E+07      0.397800000000E+34      0.146951154949E+14     -0.280164176967E+13     -0.185961170824E+06     -0.975399818789E+06     -0.647429281514E-01      0.123433185580E-01
     2      0.346896000000E+07      0.397800000000E+34      0.145649845859E+14     -0.341421147784E+13     -0.226620965874E+06     -0.966762277618E+06     -0.641696045856E-01      0.150421443437E-01
     2      0.409968000000E+07      0.397800000000E+34      0.144093302409E+14     -0.402079817879E+13     -0.266883634129E+06     -0.956430598366E+06     -0.634838312765E-01      0.177146105274E-01
     2      0.473040000000E+07      0.397800000000E+34      0.142284252262E+14     -0.462033890013E+13     -0.306678619963E+06     -0.944422886097E+06     -0.626868099620E-01      0.203560339242E-01
     2      0.536112000000E+07      0.397800000000E+34      0.140225865566E+14     -0.521178301670E+13     -0.345936187307E+06     -0.930760182924E+06     -0.617799373288E-01      0.229617857478E-01
     2      0.599184000000E+07      0.397800000000E+34      0.137921749404E+14     -0.579409409170E+13     -0.384587541856E+06     -0.915466431140E+06     -0.607648025653E-01      0.255272997223E-01
     2      0.662256000000E+07      0.397800000000E+34      0.135375941470E+14     -0.636625169291E+13     -0.422564951620E+06     -0.898568431260E+06     -0.596431845764E-01      0.280480800840E-01
     2      0.725328000000E+07      0.397800000000E+34      0.132592902996E+14     -0.692725318091E+13     -0.459801865623E+06     -0.880095795055E+06     -0.584170488669E-01      0.305197094596E-01
     2      0.788400000000E+07      0.397800000000E+34      0.129577510931E+14     -0.747611546606E+13     -0.496233030516E+06     -0.860080893664E+06     -0.570885440963E-01      0.329378566069E-01
     2      0.851472000000E+07      0.397800000000E+34      0.126335049399E+14     -0.801187673123E+13     -0.531794604936E+06     -0.838558800865E+06     -0.556599983141E-01      0.352982840054E-01
     2      0.914544000000E+07      0.397800000000E+34      0.122871200435E+14     -0.853359811733E+13     -0.566424271372E+06     -0.815567231615E+06     -0.541339148799E-01      0.375968552816E-01
     2      0.977616000000E+07      0.397800000000E+34      0.119192034030E+14     -0.904036536850E+13     -0.600061345376E+06     -0.791146475953E+06     -0.525129680767E-01      0.398295424575E-01
     2      0.104068800000E+08      0.397800000000E+34      0.115303997493E+14     -0.953129043428E+13     -0.632646881900E+06     -0.765339328405E+06     -0.507999984246E-01      0.419924330095E-01
     2      0.110376000000E+08      0.397800000000E+34      0.111213904156E+14     -0.100055130258E+14     -0.664123778594E+06     -0.738191012982E+06     -0.489980077027E-01      0.440817367241E-01
     2      0.116683200000E+08      0.397800000000E+34      0.106928921428E+14     -0.104622021232E+14     -0.694436875869E+06     -0.709749103941E+06     -0.471101536895E-01      0.460937923406E-01
     2      0.122990400000E+08      0.397800000000E+34      0.102456558244E+14     -0.109005574322E+14     -0.723533053558E+06     -0.680063442405E+06     -0.451397446285E-01      0.480250739661E-01
     2      0.129297600000E+08      0.397800000000E+34      0.978046518960E+13     -0.113198107862E+14     -0.751361324006E+06     -0.649186049033E+06     -0.430902334317E-01      0.498721972550E-01
     2      0.135604800000E+08      0.397800000000E+34      0.929813543082E+13     -0.117192274927E+14     -0.777872921415E+06     -0.617171032852E+06     -0.409652116281E-01      0.516319253391E-01
     2      0.141912000000E+08      0.397800000000E+34      0.879951177467E+13     -0.120981076205E+14     -0.803021387304E+06     -0.584074496441E+06     -0.387684030703E-01      0.533011745004E-01
     2      0.148219200000E+08      0.397800000000E+34      0.828546800090E+13     -0.124557872264E+14     -0.826762651919E+06     -0.549954437617E+06     -0.365036574088E-01      0.548770195744E-01
     2      0.154526400000E+08      0.397800000000E+34      0.775690491126E+13     -0.127916395185E+14     -0.849055111465E+06     -0.514870647802E+06     -0.341749433459E-01      0.563566990763E-01
     2      0.160833600000E+08      0.397800000000E+34      0.721474875086E+13     -0.131050759550E+14     -0.869859701007E+06     -0.478884607242E+06     -0.317863416812E-01      0.577376200404E-01
     2      0.167140800000E+08      0.397800000000E+34      0.665994958512E+13     -0.133955472750E+14     -0.889139962927E+06     -0.442059377273E+06     -0.293420381603E-01      0.590173625639E-01
     2      0.173448000000E+08      0.397800000000E+34      0.609347963484E+13     -0.136625444614E+14     -0.906862110817E+06     -0.404459489814E+06     -0.268463161398E-01      0.601936840470E-01
     2      0.179755200000E+08      0.397800000000E+34      0.551633157249E+13     -0.139055996329E+14     -0.922995088677E+06     -0.366150834279E+06     -0.243035490811E-01      0.612645231235E-01
     2      0.186062400000E+08      0.397800000000E+34      0.492951678273E+13     -0.141242868635E+14     -0.937510625347E+06     -0.327200542116E+06     -0.217181928868E-01      0.622280032729E-01
     2      0.192369600000E+08      0.397800000000E+34      0.433406358998E+13     -0.143182229294E+14     -0.950383284041E+06     -0.287676869166E+06     -0.190947780917E-01      0.630824361083E-01
     2      0.198676800000E+08      0.397800000000E+34      0.373101545650E+13     -0.144870679803E+14     -0.961590506925E+06     -0.247649076056E+06     -0.164379019241E-01      0.638263243359E-01
     2      0.204984000000E+08      0.397800000000E+34      0.312142915376E+13     -0.146305261349E+14     -0.971112654647E+06     -0.207187306819E+06     -0.137522202495E-01      0.644583643781E-01
     2      0.211291200000E+08      0.397800000000E+34      0.250637291064E+13     -0.147483459995E+14     -0.978933040754E+06     -0.166362465987E+06     -0.110424394115E-01      0.649774486583E-01
     2      0.217598400000E+08      0.397800000000E+34      0.188692454143E+13     -0.148403211086E+14     -0.985037960930E+06     -0.125246094328E+06     -0.831330798477E-02      0.653826675418E-01
     2      0.223905600000E+08      0.397800000000E+34      0.126416955713E+13     -0.149062902865E+14     -0.989416717013E+06     -0.839102434871E+05     -0.556960845369E-02      0.656733109296E-01
     2      0.230212800000E+08      0.397800000000E+34      0.639199263176E+12     -0.149461379298E+14     -0.992061635744E+06     -0.424273497184E+05     -0.281614883154E-02      0.658488695028E-01
     2      0.236520000000E+08      0.397800000000E+34      0.131088470974E+11     -0.149597942103E+14     -0.992968082209E+06     -0.870106953589E+03     -0.577542349895E-04      0.659090356153E-01
     2      0.242827200000E+08      0.397800000000E+34     -0.613004540704E+12     -0.149472351969E+14     -0.992134467964E+06      0.406886605883E+05      0.270074157126E-02      0.658537038330E-01
     2      0.249134400000E+08      0.397800000000E+34     -0.123804370957E+13     -0.149084828978E+14     -0.989562253822E+06      0.821761260160E+05      0.545450464517E-02      0.656829711181E-01
     2      0.255441600000E+08      0.397800000000E+34     -0.186091335128E+13     -0.148436052218E+14     -0.985255947284E+06      0.123519587387E+06      0.819870933822E-02      0.653971366595E-01
     2      0.261748800000E+08      0.397800000000E+34     -0.248052195946E+13     -0.147527158596E+14     -0.979223094651E+06      0.164646595108E+06      0.109285467518E-01      0.649967013487E-01
     2      0.268056000000E+08      0.397800000000E+34     -0.309578374231E+13     -0.146359740840E+14     -0.971474267790E+06      0.205485078897E+06      0.136392331644E-01      0.644823669017E-01
     2      0.274363200000E+08      0.397800000000E+34     -0.370562052535E+13     -0.144935844715E+14     -0.962023045615E+06      0.245963474075E+06      0.163260184142E-01      0.638550346294E-01
     2      0.280670400000E+08      0.397800000000E+34     -0.430896364076E+13     -0.143257965432E+14     -0.950885990290E+06      0.286010846977E+06      0.189841942235E-01      0.631158038582E-01
     2      0.286977600000E+08      0.397800000000E+34     -0.490475580011E+13     -0.141329043278E+14     -0.938082618204E+06      0.325557019254E+06      0.216091024492E-01      0.622659700036E-01
     2      0.293284800000E+08      0.397800000000E+34     -0.549195294716E+13     -0.139152458465E+14     -0.923635365770E+06      0.364532690852E+06      0.241961432459E-01      0.613070223003E-01
     2      0.299592000000E+08      0.397800000000E+34     -0.606952608742E+13     -0.136732025203E+14     -0.907569550112E+06      0.402869561453E+06      0.267407831262E-01      0.602406411919E-01
     2      0.305899200000E+08      0.397800000000E+34     -0.663646309133E+13     -0.134071985020E+14     -0.889913324697E+06      0.440500450164E+06      0.292385629056E-01      0.590686953870E-01
     2      0.312206400000E+08      0.397800000000E+34     -0.719177046793E+13     -0.131176999325E+14     -0.870697629999E+06      0.477359413241E+06      0.316851055163E-01      0.577932385835E-01
     2      0.318513600000E+08      0.397800000000E+34     -0.773447510584E+13     -0.128052141242E+14     -0.849956139279E+06      0.513381859652E+06      0.340761236776E-01      0.564165058707E-01
     2      0.324820800000E+08      0.397800000000E+34     -0.826362597848E+13     -0.124702886722E+14     -0.827725199580E+06      0.548504664261E+06      0.364074274091E-01      0.549409098119E-01
     2      0.331128000000E+08      0.397800000000E+34     -0.877829581069E+13     -0.121135104941E+14     -0.804043768029E+06      0.582666278449E+06      0.386749313728E-01      0.533690362169E-01
     2      0.337435200000E+08      0.397800000000E+34     -0.927758270361E+13     -0.117355048021E+14     -0.778953343571E+06      0.615806837972E+06      0.408746620325E-01      0.517036396108E-01
     2      0.343742400000E+08      0.397800000000E+34     -0.976061171521E+13     -0.113369340071E+14     -0.752497894247E+06      0.647868267866E+06      0.430027646165E-01      0.499476384067E-01
     2      0.350049600000E+08      0.397800000000E+34     -0.102265363935E+14     -0.109184965578E+14     -0.724723780145E+06      0.678794384213E+06      0.450555098734E-01      0.481041097919E-01
     2      0.356356800000E+08      0.397800000000E+34     -0.106745402598E+14     -0.104809257172E+14     -0.695679672160E+06      0.708530992601E+06      0.470293006062E-01      0.461762843351E-01
     2      0.362664000000E+08      0.397800000000E+34     -0.111038382397E+14     -0.100249882769E+14     -0.665416466702E+06      0.737025983094E+06      0.489206779770E-01      0.441675403254E-01
     2      0.368971200000E+08      0.397800000000E+34     -0.115136780385E+14     -0.955148321429E+13     -0.633987196507E+06      0.764229421542E+06      0.507263275673E-01      0.420813978525E-01
     2      0.375278400000E+08      0.397800000000E+34     -0.119033414597E+14     -0.906124029161E+13     -0.601446937704E+06      0.790093637093E+06      0.524430851867E-01      0.399215126375E-01
     2      0.381585600000E+08      0.397800000000E+34     -0.122721456636E+14     -0.855511860244E+13     -0.567852713301E+06      0.814573305726E+06      0.540679424177E-01      0.376916696274E-01
     2      0.387892800000E+08      0.397800000000E+34     -0.126194443640E+14     -0.803400506597E+13     -0.533263393257E+06      0.837625529676E+06      0.555980518873E-01      0.353957763619E-01
     2      0.394200000000E+08      0.397800000000E+34     -0.129446289604E+14     -0.749881287288E+13     -0.497739591320E+06      0.859209912608E+06      0.570307322571E-01      0.330378561262E-01
     2      0.400507200000E+08      0.397800000000E+34     -0.132471296046E+14     -0.695047988505E+13     -0.461343558808E+06      0.879288630410E+06      0.583634729216E-01      0.306220409003E-01
     2      0.406814400000E+08      0.397800000000E+34     -0.135264161996E+14     -0.638996699208E+13     -0.424139075523E+06      0.897826497469E+06      0.595939384084E-01      0.281525641188E-01
     2      0.413121600000E+08      0.397800000000E+34     -0.137819993282E+14     -0.581825642741E+13     -0.386191337982E+06      0.914791028335E+06      0.607199724699E-01      0.256337532517E-01
     2      0.419428800000E+08      0.397800000000E+34     -0.140134311108E+14     -0.523635004711E+13     -0.347566845167E+06      0.930152494647E+06      0.617396018627E-01      0.230700222212E-01
     2      0.425736000000E+08      0.397800000000E+34     -0.142203059902E+14     -0.464526757423E+13     -0.308333281998E+06      0.943883977225E+06      0.626510398053E-01      0.204658636670E-01
     2      0.432043200000E+08      0.397800000000E+34     -0.144022614423E+14     -0.404604481184E+13     -0.268559400716E+06      0.955961413249E+06      0.634526891087E-01      0.178258410732E-01
     2      0.438350400000E+08      0.397800000000E+34     -0.145589786114E+14     -0.343973182793E+13     -0.228314900410E+06      0.966363638419E+06      0.641431449760E-01      0.151545807716E-01
     2      0.444657600000E+08      0.397800000000E+34     -0.146901828688E+14     -0.282739111527E+13     -0.187670304871E+06      0.975072424048E+06      0.647211974638E-01      0.124567638342E-01
     2      0.450964800000E+08      0.397800000000E+34     -0.147956442946E+14     -0.221009572952E+13     -0.146696839013E+06      0.982072509007E+06      0.651858336025E-01      0.973711787073E-02
     2      0.457272000000E+08      0.397800000000E+34     -0.148751780798E+14     -0.158892740883E+13     -0.105466304054E+06      0.987351626461E+06      0.655362391714E-01      0.700040874352E-02
     2      0.463579200000E+08      0.397800000000E+34     -0.149286448507E+14     -0.964974678221E+12     -0.640509516991E+05      0.990900525373E+06      0.657718001254E-01      0.425143221618E-02
     2      0.469886400000E+08      0.397800000000E+34     -0.149559509130E+14     -0.339330942064E+12     -0.225233575211E+05      0.992712986712E+06      0.658921036716E-01      0.149500554953E-02
     2      0.476193600000E+08      0.397800000000E+34     -0.149570484161E+14      0.286907431982E+12      0.190437062146E+05      0.992785834350E+06      0.658969389920E-01     -0.126404094014E-02
     2      0.482500800000E+08      0.397800000000E+34     -0.149319354368E+14      0.912643034222E+12      0.605773980775E+05      0.991118940631E+06      0.657862976132E-01     -0.402087234560E-02
     2      0.488808000000E+08      0.397800000000E+34     -0.148806559825E+14      0.153677933601E+13      0.102004935117E+06      0.987715226590E+06      0.655603734213E-01     -0.677065764128E-02
     2      0.495115200000E+08      0.397800000000E+34     -0.148032999145E+14      0.215822261129E+13      0.143253720407E+06      0.982580656840E+06      0.652195623221E-01     -0.950857814910E-02
     2      0.501422400000E+08      0.397800000000E+34     -0.147000027904E+14      0.277588385322E+13      0.184251470262E+06      0.975724229116E+06      0.647644615474E-01     -0.122298359827E-01
     2      0.507729600000E+08      0.397800000000E+34     -0.145709456263E+14      0.338868068252E+13      0.224926340908E+06      0.967157958507E+06      0.641958686082E-01     -0.149296624549E-01
     2      0.514036800000E+08      0.397800000000E+34     -0.144163545798E+14      0.399553924424E+13      0.265207054379E+06      0.956896856404E+06      0.635147798973E-01     -0.176033264349E-01
     2      0.520344000000E+08      0.397800000000E+34     -0.142365005537E+14      0.459539608956E+13      0.305023023423E+06      0.944958904191E+06      0.627223889434E-01     -0.202461426381E-01
     2      0.526651200000E+08      0.397800000000E+34     -0.140316987212E+14      0.518720003931E+13      0.344304475198E+06      0.931365021738E+06      0.618200843192E-01     -0.228534798375E-01
     2      0.532958400000E+08      0.397800000000E+34     -0.138023079736E+14      0.576991402614E+13      0.382982573542E+06      0.916139030738E+06      0.608094472084E-01     -0.254207689786E-01
     2      0.539265600000E+08      0.397800000000E+34     -0.135487302915E+14      0.634251691174E+13      0.420989539600E+06      0.899307612965E+06      0.596922486347E-01     -0.279435111867E-01
     2      0.545572800000E+08      0.397800000000E+34     -0.132714100401E+14      0.690400527637E+13      0.458258770597E+06      0.880900263515E+06      0.584704463584E-01     -0.304172856502E-01
     2      0.551880000000E+08      0.397800000000E+34     -0.129708331908E+14      0.745339517718E+13      0.494724956553E+06      0.860949239123E+06      0.571461814456E-01     -0.328377573679E-01
     2      0.558187200000E+08      0.397800000000E+34     -0.126475264696E+14      0.798972387244E+13      0.530324194731E+06      0.839489501630E+06      0.557217745161E-01     -0.352006847454E-01
     2      0.564494400000E+08      0.397800000000E+34     -0.123020564337E+14      0.851205150871E+13      0.564994101620E+06      0.816558656725E+06      0.541997216771E-01     -0.375019270281E-01
     2      0.570801600000E+08      0.397800000000E+34     -0.119350284791E+14      0.901946276772E+13      0.598673922252E+06      0.792196888040E+06      0.525826901487E-01     -0.397374515574E-01
     2      0.577108800000E+08      0.397800000000E+34     -0.115470857794E+14      0.951106847046E+13      0.631304636670E+06      0.766446886731E+06      0.508735135902E-01     -0.419033408372E-01
     2      0.583416000000E+08      0.397800000000E+34     -0.111389081590E+14      0.998600713527E+13      0.662829063354E+06      0.739353776674E+06      0.490751871343E-01     -0.439957993992E-01
     2      0.589723200000E+08      0.397800000000E+34     -0.107112109015E+14      0.104434464876E+14      0.693191959424E+06      0.710965035385E+06      0.471908621383E-01     -0.460111604539E-01
     2      0.596030400000E+08      0.397800000000E+34     -0.102647434965E+14      0.108825849182E+14      0.722340117447E+06      0.681330410820E+06      0.452238406622E-01     -0.479458923162E-01
     2      0.602337600000E+08      0.397800000000E+34     -0.980028832603E+13      0.113026528884E+14      0.750222458678E+06      0.650501834205E+06      0.431775696819E-01     -0.497966045942E-01
     2      0.608644800000E+08      0.397800000000E+34     -0.931865929362E+13      0.117029142781E+14      0.776790122565E+06      0.618533329022E+06      0.410556350485E-01     -0.515600541306E-01
     2      0.614952000000E+08      0.397800000000E+34     -0.882070039794E+13      0.120826676757E+14      0.801996552379E+06      0.585480916350E+06      0.388617552052E-01     -0.532331506859E-01
     2      0.621259200000E+08      0.397800000000E+34     -0.830728425388E+13      0.124412476079E+14      0.825797576792E+06      0.551402516686E+06      0.365997746705E-01     -0.548129623535E-01
     2      0.627566400000E+08      0.397800000000E+34     -0.777931056333E+13      0.127780257050E+14      0.848151487286E+06      0.516357848451E+06      0.342736573016E-01     -0.562967206979E-01
     2      0.633873600000E+08      0.397800000000E+34     -0.723770453859E+13      0.130924118029E+14      0.869019111242E+06      0.480408323339E+06      0.318874793480E-01     -0.576818256059E-01
     2      0.640180800000E+08      0.397800000000E+34     -0.668341528104E+13      0.133838549765E+14      0.888363880584E+06      0.443616938698E+06      0.294454223083E-01     -0.589658498426E-01
     2      0.646488000000E+08      0.397800000000E+34     -0.611741411794E+13      0.136518445058E+14      0.906151895861E+06      0.406048167140E+06      0.269517656026E-01     -0.601465433056E-01
     2      0.652795200000E+08      0.397800000000E+34     -0.554069290029E+13      0.138959107702E+14      0.922351985653E+06      0.367767843553E+06      0.244108790735E-01     -0.612218369674E-01
     2      0.659102400000E+08      0.397800000000E+34     -0.495426226476E+13      0.141156260722E+14      0.936935761193E+06      0.328843049739E+06      0.218272153284E-01     -0.621898465015E-01
     2      0.665409600000E+08      0.397800000000E+34     -0.435914986262E+13      0.143106053864E+14      0.949877666118E+06      0.289341996860E+06      0.192053019366E-01     -0.630488755841E-01
     2      0.671716800000E+08      0.397800000000E+34     -0.375639855892E+13      0.144805070342E+14      0.961155021249E+06      0.249333905902E+06      0.165497334955E-01     -0.637974188672E-01
     2      0.678024000000E+08      0.397800000000E+34     -0.314706460500E+13      0.146250332829E+14      0.970748064339E+06      0.208888886378E+06      0.138651635791E-01     -0.644341646162E-01
     2      0.684331200000E+08      0.397800000000E+34     -0.253221578753E+13      0.147439308670E+14      0.978639984700E+06      0.168077813466E+06      0.111562965830E-01     -0.649579970086E-01
     2      0.690638400000E+08      0.397800000000E+34     -0.191292955733E+13      0.148369914325E+14      0.984816952663E+06      0.126972203810E+06      0.842787948063E-02     -0.653679980893E-01
     2      0.696945600000E+08      0.397800000000E+34     -0.129029114126E+13      0.149040519015E+14      0.989268143815E+06      0.856440901952E+05      0.568469350474E-02     -0.656634493796E-01
     2      0.703252800000E+08      0.397800000000E+34     -0.665391640510E+12      0.149449947585E+14      0.991985757963E+06      0.441658953200E+05      0.293154576870E-02     -0.658438331355E-01
     2      0.709560000000E+08      0.397800000000E+34     -0.393261185436E+11      0.149597482558E+14      0.992965032806E+06      0.261030488130E+04      0.173260842721E-03     -0.659088332559E-01
     2      0.715867200000E+08      0.397800000000E+34      0.586808317856E+12      0.149482865397E+14      0.992204252282E+06     -0.389498597970E+05     -0.258532770066E-02     -0.658583358358E-01
     2      0.722174400000E+08      0.397800000000E+34      0.121191444114E+13      0.149106296955E+14      0.989704749570E+06     -0.804417693753E+05     -0.533938575688E-02     -0.656924293661E-01
     2      0.728481600000E+08      0.397800000000E+34      0.183489682577E+13      0.148468437125E+14      0.985470904759E+06     -0.121792714123E+06     -0.808408716054E-02     -0.654114045787E-01
     2      0.734788800000E+08      0.397800000000E+34      0.245466376779E+13      0.147570403680E+14      0.979510137168E+06     -0.162930231335E+06     -0.108146221427E-01     -0.650157539371E-01
     2      0.741096000000E+08      0.397800000000E+34      0.307012919796E+13      0.146413770322E+14      0.971832892349E+06     -0.203782232311E+06     -0.135262057594E-01     -0.645061707728E-01
     2      0.747403200000E+08      0.397800000000E+34      0.368021458491E+13      0.145000563914E+14      0.962452623780E+06     -0.244277128687E+06     -0.162140862768E-01     -0.638835480712E-01
     2      0.753710400000E+08      0.397800000000E+34      0.428385082520E+13      0.143333260935E+14      0.951385769286E+06     -0.284343957882E+06     -0.188735534980E-01     -0.631489769061E-01
     2      0.760017600000E+08      0.397800000000E+34      0.487998011675E+13      0.141414783141E+14      0.938651722241E+06     -0.323912507453E+06     -0.214999470170E-01     -0.623037445277E-01
     2      0.766324800000E+08      0.397800000000E+34      0.546755781253E+13      0.139248492439E+14      0.924272797577E+06     -0.362913438135E+06     -0.240886643857E-01     -0.613493321075E-01
     2      0.772632000000E+08      0.397800000000E+34      0.604555425118E+13      0.136838185002E+14      0.908274192684E+06     -0.401278405347E+06     -0.266351691791E-01     -0.602874121419E-01
     2      0.778939200000E+08      0.397800000000E+34      0.661295656140E+13      0.134188084611E+14      0.890683943250E+06     -0.438940178962E+06     -0.291349989447E-01     -0.591198455219E-01
     2      0.785246400000E+08      0.397800000000E+34      0.716877043684E+13      0.131302835259E+14      0.871532874137E+06     -0.475832761117E+06     -0.315837730227E-01     -0.578486782720E-01
     2      0.791553600000E+08      0.397800000000E+34      0.771202187854E+13      0.128187493009E+14      0.850854545358E+06     -0.511891501866E+06     -0.339772002223E-01     -0.564761379644E-01
     2      0.797860800000E+08      0.397800000000E+34      0.824175890175E+13      0.124847517135E+14      0.828685193274E+06     -0.547053212475E+06     -0.363110863418E-01     -0.550046298160E-01
     2      0.804168000000E+08      0.397800000000E+34      0.875705320414E+13      0.121288760554E+14      0.805063667088E+06     -0.581256276149E+06     -0.385813415183E-01     -0.534367324733E-01
     2      0.810475200000E+08      0.397800000000E+34      0.925700179257E+13      0.117517459572E+14      0.780031360769E+06     -0.614440756011E+06     -0.407839873944E-01     -0.517751934935E-01
     2      0.816782400000E+08      0.397800000000E+34      0.974072856549E+13      0.113540222955E+14      0.753632140514E+06     -0.646548500133E+06     -0.429151640905E-01     -0.500229245298E-01
     2      0.823089600000E+08      0.397800000000E+34      0.102073858482E+14      0.109364020345E+14      0.725912267876E+06     -0.677523243440E+06     -0.449711369683E-01     -0.481829962292E-01
     2      0.829396800000E+08      0.397800000000E+34      0.106561558782E+14      0.104996170050E+14      0.696920318698E+06     -0.707310706312E+06     -0.469483031754E-01     -0.462586328514E-01
     2      0.835704000000E+08      0.397800000000E+34      0.110862522384E+14      0.100444326219E+14      0.666707097989E+06     -0.735858689694E+06     -0.488431979587E-01     -0.442532066186E-01
     2      0.842011200000E+08      0.397800000000E+34      0.114969212352E+14      0.957164654263E+13      0.635325550892E+06     -0.763117166579E+06     -0.506525007365E-01     -0.421702318065E-01
     2      0.848318400000E+08      0.397800000000E+34      0.118874432191E+14      0.908208726967E+13      0.602830669908E+06     -0.789038369667E+06     -0.523730409168E-01     -0.400133585852E-01
     2      0.854625600000E+08      0.397800000000E+34      0.122571338457E+14      0.857661269852E+13      0.569279398523E+06     -0.813576875076E+06     -0.540018034540E-01     -0.377863666234E-01
     2      0.860932800000E+08      0.397800000000E+34      0.126053452756E+14      0.805610861437E+13      0.534730531426E+06     -0.836689681939E+06     -0.555359341319E-01     -0.354931584646E-01
     2      0.867240000000E+08      0.397800000000E+34      0.129314673087E+14      0.752148713992E+13      0.499244611476E+06     -0.858336287760E+06     -0.569727445657E-01     -0.331377526886E-01
     2      0.873547200000E+08      0.397800000000E+34      0.132349284543E+14      0.697368513690E+13      0.462883823606E+06     -0.878478759388E+06     -0.583097169127E-01     -0.307242768691E-01
     2      0.879854400000E+08      0.397800000000E+34      0.135151969321E+14      0.641366256442E+13      0.425711885853E+06     -0.897081799493E+06     -0.595445082852E-01     -0.282569603407E-01
     2      0.886161600000E+08      0.397800000000E+34      0.137717816043E+14      0.584240079669E+13      0.387793937701E+06     -0.914112808420E+06     -0.606749548554E-01     -0.257401267877E-01
     2      0.892468800000E+08      0.397800000000E+34      0.140042328362E+14      0.526090090330E+13      0.349196425930E+06     -0.929541941313E+06     -0.616990756478E-01     -0.231781866671E-01
     2      0.898776000000E+08      0.397800000000E+34      0.142121432842E+14      0.467018189495E+13      0.309986988174E+06     -0.943342160417E+06     -0.626150760102E-01     -0.205756294801E-01
     2      0.905083200000E+08      0.397800000000E+34      0.143951486095E+14      0.407127893778E+13      0.270234334397E+06     -0.955489282460E+06     -0.634213507591E-01     -0.179370159041E-01
     2      0.911390400000E+08      0.397800000000E+34      0.145529281166E+14      0.346524153935E+13      0.230008126486E+06     -0.965962021028E+06     -0.641164869920E-01     -0.152669698017E-01
     2      0.917697600000E+08      0.397800000000E+34      0.146852053153E+14      0.285313170947E+13      0.189378856177E+06     -0.974742023870E+06     -0.646992665640E-01     -0.125701701168E-01
     2      0.924004800000E+08      0.397800000000E+34      0.147917484053E+14      0.223602209920E+13      0.148417721523E+06     -0.981813905054E+06     -0.651686682219E-01     -0.985134267613E-02
     2      0.930312000000E+08      0.397800000000E+34      0.148723706822E+14      0.161499412111E+13      0.107196502132E+06     -0.987165271936E+06     -0.655238693940E-01     -0.711525190741E-02
     2      0.936619200000E+08      0.397800000000E+34      0.149269308649E+14      0.991136054287E+12      0.657874333825E+05     -0.990786746869E+06     -0.657642476320E-01     -0.436669249030E-02
     2      0.942926400000E+08      0.397800000000E+34      0.149553333431E+14      0.365541137179E+12      0.242630798331E+05     -0.992671983641E+06     -0.658893817009E-01     -0.161048095435E-02
     2      0.949233600000E+08      0.397800000000E+34      0.149575283447E+14     -0.260694348116E+12     -0.173037919321E+05     -0.992817678595E+06     -0.658990523179E-01      0.114855276149E-02
     2      0.955540800000E+08      0.397800000000E+34      0.149335120233E+14     -0.886472996984E+12     -0.588403408215E+05     -0.991223576417E+06     -0.657932425364E-01      0.390557377271E-02
     2      0.961848000000E+08      0.397800000000E+34      0.148833264645E+14     -0.151069820536E+13     -0.100273778880E+06     -0.987892470585E+06     -0.655721377756E-01      0.665575072182E-02
     2      0.968155200000E+08      0.397800000000E+34      0.148070596129E+14     -0.213227609142E+13     -0.141531498844E+06     -0.982830198474E+06     -0.652361254959E-01      0.939426424477E-02
     2      0.974462400000E+08      0.397800000000E+34      0.147048451171E+14     -0.275011741243E+13     -0.182541201374E+06     -0.976045631125E+06     -0.647857945196E-01      0.121163154163E-01
     2      0.980769600000E+08      0.397800000000E+34      0.145768620961E+14     -0.336313947359E+13     -0.223231021751E+06     -0.967550657699E+06     -0.642219339990E-01      0.148171341594E-01
     2      0.987076800000E+08      0.397800000000E+34      0.144233348253E+14     -0.397026802525E+13     -0.263529655815E+06     -0.957360164645E+06     -0.635455320338E-01      0.174919876046E-01
     2      0.993384000000E+08      0.397800000000E+34      0.142445323432E+14     -0.457043914547E+13     -0.303366484911E+06     -0.945492009615E+06     -0.627577739396E-01      0.201361883835E-01
     2      0.999691200000E+08      0.397800000000E+34      0.140407679803E+14     -0.516260110441E+13     -0.342671699646E+06     -0.931966990162E+06     -0.618600401704E-01      0.227451028427E-01
     2      0.100599840000E+09      0.397800000000E+34      0.138123988099E+14     -0.574571620732E+13     -0.381376422218E+06     -0.916808807307E+06     -0.608539038996E-01      0.253141591644E-01
     2      0.101230560000E+09      0.397800000000E+34      0.135598250223E+14     -0.631876261302E+13     -0.419412827118E+06     -0.900044023994E+06     -0.597411282638E-01      0.278388553770E-01
     2      0.101861280000E+09      0.397800000000E+34      0.132834892236E+14     -0.688073612456E+13     -0.456714259984E+06     -0.881702018549E+06     -0.585236632721E-01      0.303147672452E-01
     2      0.102492000000E+09      0.397800000000E+34      0.129838756600E+14     -0.743065194892E+13     -0.493215354408E+06     -0.861814933195E+06     -0.572036423898E-01      0.327375560225E-01
     2      0.103122720000E+09      0.397800000000E+34      0.126615093694E+14     -0.796754642280E+13     -0.528852146481E+06     -0.840417617730E+06     -0.557833787994E-01      0.351029760542E-01
     2      0.103753440000E+09      0.397800000000E+34      0.123169552611E+14     -0.849047870127E+13     -0.563562186885E+06     -0.817547568449E+06     -0.542653613470E-01      0.374068822178E-01
     2      0.104384160000E+09      0.397800000000E+34      0.119508171258E+14     -0.899853240653E+13     -0.597284650323E+06     -0.793244862445E+06     -0.526522501807E-01      0.396452371867E-01
     2      0.105014880000E+09      0.397800000000E+34      0.115637365781E+14     -0.949081723374E+13     -0.629960442113E+06     -0.767552087374E+06     -0.509468720897E-01      0.418141185049E-01
     2      0.105645600000E+09      0.397800000000E+34      0.111563919312E+14     -0.996647051117E+13     -0.661532301742E+06     -0.740514266825E+06     -0.491522155498E-01      0.439097254610E-01
     2      0.106276320000E+09      0.397800000000E+34      0.107294970093E+14     -0.104246587120E+14     -0.691944903211E+06     -0.712178781422E+06     -0.472714254871E-01      0.459283857484E-01
     2      0.106907040000E+09      0.397800000000E+34      0.102837998959E+14     -0.108645789147E+14     -0.721144951984E+06     -0.682595285797E+06     -0.453077977666E-01      0.478665619005E-01
     2      0.107537760000E+09      0.397800000000E+34      0.982008162304E+13     -0.112854602107E+14     -0.749081278382E+06     -0.651815621572E+06     -0.432647734165E-01      0.497208574897E-01
     2      0.108168480000E+09      0.397800000000E+34      0.933915480300E+13     -0.116865650544E+14     -0.775704927252E+06     -0.619893726517E+06     -0.411459325985E-01      0.514880230792E-01
     2      0.108799200000E+09      0.397800000000E+34      0.884186220389E+13     -0.120671905565E+14     -0.800969243755E+06     -0.586885540027E+06     -0.389549883337E-01      0.531649619176E-01
     2      0.109429920000E+09      0.397800000000E+34      0.832907527294E+13     -0.124266697152E+14     -0.824829955125E+06     -0.552848905097E+06     -0.366957799962E-01      0.547487353652E-01
     2      0.110060640000E+09      0.397800000000E+34      0.780169260943E+13     -0.127643725852E+14     -0.847245248248E+06     -0.517843466956E+06     -0.343722665848E-01      0.562365680436E-01
     2      0.110691360000E+09      0.397800000000E+34      0.726063838992E+13     -0.130797073815E+14     -0.868175842937E+06     -0.481930568550E+06     -0.319885197856E-01      0.576258526996E-01
     2      0.111322080000E+09      0.397800000000E+34      0.670686074880E+13     -0.133721215168E+14     -0.887585060767E+06     -0.445173143042E+06     -0.295487168365E-01      0.589141547740E-01
     2      0.111952800000E+09      0.397800000000E+34      0.614133011678E+13     -0.136411025694E+14     -0.905438889347E+06     -0.407635603531E+06     -0.270571332074E-01      0.600992166675E-01
     2      0.112583520000E+09      0.397800000000E+34      0.556503752029E+13     -0.138861791813E+14     -0.921706041925E+06     -0.369383730173E+06     -0.245181351077E-01      0.611789616972E-01
     2      0.113214240000E+09      0.397800000000E+34      0.497899284487E+13     -0.141069218845E+14     -0.936358012213E+06     -0.330484554914E+06     -0.219361718353E-01      0.621514977359E-01
     2      0.113844960000E+09      0.397800000000E+34      0.438422306542E+13     -0.143029438530E+14     -0.949369124341E+06     -0.291006244018E+06     -0.193157679794E-01      0.630151205276E-01
     2      0.114475680000E+09      0.397800000000E+34      0.378177044659E+13     -0.144739015812E+14     -0.960716577852E+06     -0.251017978618E+06     -0.166615154920E-01      0.637683166738E-01
     2      0.115106400000E+09      0.397800000000E+34      0.317269071629E+13     -0.146194954857E+14     -0.970380487658E+06     -0.210589833484E+06     -0.139780656408E-01      0.644097662861E-01
     2      0.115737120000E+09      0.397800000000E+34      0.255805121569E+13     -0.147394704300E+14     -0.978343918882E+06     -0.169792654221E+06     -0.112701208585E-01      0.649383452988E-01
     2      0.116367840000E+09      0.397800000000E+34      0.193892902880E+13     -0.148336161722E+14     -0.984592916538E+06     -0.128697933127E+06     -0.854242650222E-02      0.653531274385E-01
     2      0.116998560000E+09      0.397800000000E+34      0.131640909501E+13     -0.149017677327E+14     -0.989116529987E+06     -0.873776839054E+05     -0.579976253812E-02      0.656533858478E-01
     2      0.117629280000E+09      0.397800000000E+34      0.691582307865E+12     -0.149438056839E+14     -0.991906832122E+06     -0.459043154712E+05     -0.304693516473E-02      0.658385943587E-01
     2      0.118260000000E+09      0.397800000000E+34      0.655436034211E+11     -0.149596563592E+14     -0.992958933263E+06     -0.435050506387E+04     -0.288768390824E-03      0.659084284148E-01
     2      0.118890720000E+09      0.397800000000E+34     -0.560609958539E+12     -0.149492919821E+14     -0.992270989724E+06      0.372109291122E+05      0.246990441814E-02      0.658627656398E-01
     2      0.119521440000E+09      0.397800000000E+34     -0.118578111695E+13     -0.149127307149E+14     -0.989844207045E+06      0.787071554925E+05      0.522424900993E-02      0.657016860522E-01
     2      0.120152160000E+09      0.397800000000E+34     -0.180887433230E+13     -0.148500366270E+14     -0.985682837877E+06      0.120065456782E+06      0.796943871699E-02      0.654254719250E-01
     2      0.120782880000E+09      0.397800000000E+34     -0.242879770643E+13     -0.147613195825E+14     -0.979794174534E+06      0.161213357382E+06      0.107006629146E-01      0.650346072911E-01
     2      0.121413600000E+09      0.397800000000E+34     -0.304446489593E+13     -0.146467350476E+14     -0.972188536209E+06      0.202078750398E+06      0.134131354510E-01      0.645297770950E-01
     2      0.122044320000E+09      0.397800000000E+34     -0.365479701590E+13     -0.145064838184E+14     -0.962879250894E+06      0.242590023995E+06      0.161021030344E-01      0.639118659926E-01
     2      0.122675040000E+09      0.397800000000E+34     -0.425872453050E+13     -0.143408116687E+14     -0.951882632026E+06      0.282676186894E+06      0.187628535628E-01      0.631819568007E-01
     2      0.123305760000E+09      0.397800000000E+34     -0.485518912721E+13     -0.141500089197E+14     -0.939217949895E+06      0.322266992768E+06      0.213907243813E-01      0.623413285999E-01
     2      0.123936480000E+09      0.397800000000E+34     -0.544314557141E+13     -0.139344099309E+14     -0.924907397877E+06      0.361293063351E+06      0.239811104527E-01      0.613914544930E-01
     2      0.124567200000E+09      0.397800000000E+34     -0.602156353802E+13     -0.136943925143E+14     -0.908976053543E+06      0.399686010004E+06      0.265294724276E-01      0.603339990233E-01
     2      0.125197920000E+09      0.397800000000E+34     -0.658942941704E+13     -0.134303772725E+14     -0.891451834716E+06      0.437378553569E+06      0.290313445989E-01      0.591708152580E-01
     2      0.125828640000E+09      0.397800000000E+34     -0.714574808976E+13     -0.131428268614E+14     -0.872365450543E+06      0.474304642258E+06      0.314823427272E-01      0.579039415409E-01
     2      0.126459360000E+09      0.397800000000E+34     -0.768954467260E+13     -0.128322451796E+14     -0.851750347684E+06      0.510399567408E+06      0.338781717242E-01      0.565355979202E-01
     2      0.127090080000E+09      0.397800000000E+34     -0.821986622549E+13     -0.124991764851E+14     -0.829642651703E+06      0.545600076874E+06      0.362146331789E-01      0.550681822584E-01
     2      0.127720800000E+09      0.397800000000E+34     -0.873578342178E+13     -0.121442044420E+14     -0.806081103755E+06      0.579844485868E+06      0.384876327152E-01      0.535042660302E-01
     2      0.128351520000E+09      0.397800000000E+34     -0.923639217675E+13     -0.117679510974E+14     -0.781106992704E+06      0.613072785057E+06      0.406931871663E-01      0.518465898161E-01
     2      0.128982240000E+09      0.397800000000E+34     -0.972081523196E+13     -0.113710757913E+14     -0.754764082765E+06      0.645226745723E+06      0.428274315552E-01      0.500980585003E-01
     2      0.129612960000E+09      0.397800000000E+34     -0.101882036925E+14     -0.109542740015E+14     -0.727098536815E+06      0.676250021799E+06      0.448866258674E-01      0.482617361799E-01
     2      0.130243680000E+09      0.397800000000E+34     -0.106377385147E+14     -0.105182761245E+14     -0.698158835495E+06      0.706088248613E+06      0.468671616051E-01      0.463408407955E-01
     2      0.130874400000E+09      0.397800000000E+34     -0.110686319411E+14     -0.100638461956E+14     -0.667995692255E+06      0.734689138152E+06      0.487655681102E-01      0.443387384921E-01
     2      0.131505120000E+09      0.397800000000E+34     -0.114801288813E+14     -0.959178055028E+13     -0.636661964483E+06      0.762002570693E+06      0.505785186466E-01      0.422589377204E-01
     2      0.132135840000E+09      0.397800000000E+34     -0.118715082349E+14     -0.910290642853E+13     -0.604212560883E+06      0.787980682630E+06      0.523028362298E-01      0.401050830887E-01
     2      0.132766560000E+09      0.397800000000E+34     -0.122420841552E+14     -0.859808052520E+13     -0.570704345249E+06      0.812577950352E+06      0.539354991944E-01      0.378809489758E-01
     2      0.133397280000E+09      0.397800000000E+34     -0.125912072512E+14     -0.807818748879E+13     -0.536196036818E+06      0.835751270015E+06      0.554736464887E-01      0.355904329175E-01
     2      0.134028000000E+09      0.397800000000E+34     -0.129182657253E+14     -0.754413837119E+13     -0.500748107377E+06      0.857460033080E+06      0.569145826889E-01      0.332375487758E-01
     2      0.134658720000E+09      0.397800000000E+34     -0.132226864457E+14     -0.699686903117E+13     -0.464422675287E+06      0.877666197471E+06      0.582557827223E-01      0.308264197059E-01
     2      0.135289440000E+09      0.397800000000E+34     -0.135039359507E+14     -0.643733849442E+13     -0.427283396628E+06      0.896334354240E+06      0.594948962921E-01      0.283612709302E-01
     2      0.135920160000E+09      0.397800000000E+34     -0.137615213833E+14     -0.586652727291E+13     -0.389395353656E+06      0.913431789620E+06      0.606297519963E-01      0.258464223344E-01
     2      0.136550880000E+09      0.397800000000E+34     -0.139949913550E+14     -0.528543564673E+13     -0.350824940746E+06      0.928928542349E+06      0.616583611324E-01      0.232862808974E-01
     2      0.137181600000E+09      0.397800000000E+34     -0.142039367369E+14     -0.469508191116E+13     -0.311639748047E+06      0.942797456176E+06      0.625789211830E-01      0.206853329684E-01
     2      0.137812320000E+09      0.397800000000E+34     -0.143879913767E+14     -0.409650059225E+13     -0.271908443038E+06      0.955014227445E+06      0.633898189736E-01      0.180481364055E-01
     2      0.138443040000E+09      0.397800000000E+34     -0.145468327401E+14     -0.349074063394E+13     -0.231700650198E+06      0.965557447690E+06      0.640896335005E-01      0.153793125879E-01
     2      0.139073760000E+09      0.397800000000E+34     -0.146801824760E+14     -0.287886355987E+13     -0.191086828993E+06      0.974408641147E+06      0.646771384203E-01      0.126835383183E-01
     2      0.139704480000E+09      0.397800000000E+34     -0.147878069047E+14     -0.226194161326E+13     -0.150138150408E+06      0.981552297131E+06      0.651513041991E-01      0.996553762675E-02
     2      0.140335200000E+09      0.397800000000E+34     -0.148695174269E+14     -0.164105587784E+13     -0.108926372225E+06      0.986975897218E+06      0.655112999165E-01      0.723007349240E-02
     2      0.140965920000E+09      0.397800000000E+34     -0.149251708543E+14     -0.101729438343E+13     -0.675237132791E+05      0.990669937180E+06      0.657564947221E-01      0.448193949721E-02
     2      0.141596640000E+09      0.397800000000E+34     -0.149546696610E+14     -0.391750199283E+12     -0.260027269006E+05      0.992627943645E+06      0.658864589405E-01      0.172595142555E-02
     2      0.142227360000E+09      0.397800000000E+34     -0.149579621535E+14      0.234480481383E+12      0.155638262247E+05      0.992846485433E+06      0.659009648245E-01     -0.103306117485E-02
     2      0.142858080000E+09      0.397800000000E+34     -0.149350425624E+14      0.860300262358E+12      0.571031055608E+05      0.991325179576E+06      0.657999869543E-01     -0.379026345613E-02
     2      0.143488800000E+09      0.397800000000E+34     -0.148859510514E+14      0.148461246748E+13      0.985423183658E+05      0.988066691985E+06      0.655837022818E-01     -0.654082374281E-02
     2      0.144119520000E+09      0.397800000000E+34     -0.148107736476E+14      0.210632306244E+13      0.139808847253E+06      0.983076732778E+06      0.652524898207E-01     -0.927992199872E-02
     2      0.144750240000E+09      0.397800000000E+34     -0.147096420909E+14      0.272434257194E+13      0.180830377443E+06      0.976364046279E+06      0.648069299822E-01     -0.120027582736E-01
     2      0.145380960000E+09      0.397800000000E+34     -0.145827336023E+14      0.333758798889E+13      0.221535023489E+06      0.967940395686E+06      0.642478035580E-01     -0.147045611143E-01
     2      0.146011680000E+09      0.397800000000E+34     -0.144302705742E+14      0.394498467224E+13      0.261851455248E+06      0.957820542465E+06      0.635760903520E-01     -0.173805959264E-01
     2      0.146642400000E+09      0.397800000000E+34     -0.142525201803E+14      0.454546823015E+13      0.301709022874E+06      0.946022220480E+06      0.627929674632E-01     -0.200261732711E-01
     2      0.147273120000E+09      0.397800000000E+34     -0.140497939074E+14      0.513798638523E+13      0.341037880631E+06      0.932566104912E+06      0.618998072233E-01     -0.226366570825E-01
     2      0.147903840000E+09      0.397800000000E+34     -0.138224470097E+14      0.572150081855E+13      0.379769109281E+06      0.917475776036E+06      0.608981747915E-01     -0.252074727922E-01
     2      0.148534560000E+09      0.397800000000E+34     -0.135708778860E+14      0.629498898913E+13      0.417834836864E+06      0.900777677894E+06      0.597898254118E-01     -0.277341153453E-01
     2      0.149165280000E+09      0.397800000000E+34     -0.132955273820E+14      0.685744592585E+13      0.455168357634E+06      0.882501071954E+06      0.585767013374E-01     -0.302121570957E-01
     2      0.149796000000E+09      0.397800000000E+34     -0.129968780173E+14      0.740788598855E+13      0.491704248949E+06      0.862677985837E+06      0.572609284267E-01     -0.326372555639E-01
     2      0.150426720000E+09      0.397800000000E+34     -0.126754531400E+14      0.794534459523E+13      0.527378485923E+06      0.841343157191E+06      0.558448124185E-01     -0.350051610479E-01
     2      0.151057440000E+09      0.397800000000E+34     -0.123318160098E+14      0.846887991238E+13      0.562128553616E+06      0.818533972814E+06      0.543308348909E-01     -0.373117240694E-01
     2      0.151688160000E+09      0.397800000000E+34     -0.119665688105E+14      0.897757450544E+13      0.595893556588E+06      0.794290403142E+06      0.527216489132E-01     -0.395529026459E-01
     2      0.152318880000E+09      0.397800000000E+34     -0.115803515955E+14      0.947053694648E+13      0.628614325611E+06      0.768654932204E+06      0.510200743961E-01     -0.417247693731E-01
     2      0.152949600000E+09      0.397800000000E+34     -0.111738411652E+14      0.994690337633E+13      0.660233521354E+06      0.741672483171E+06      0.492290931507E-01     -0.438235183081E-01
     2      0.153580320000E+09      0.397800000000E+34     -0.107477498818E+14      0.104058390184E+14      0.690695734865E+06      0.713390339641E+06      0.473518436627E-01     -0.458454716381E-01
     2      0.154211040000E+09      0.397800000000E+34     -0.103028244205E+14      0.108465396415E+14      0.719947584670E+06      0.683858062771E+06      0.453916155930E-01     -0.477870861259E-01
     2      0.154841760000E+09      0.397800000000E+34     -0.983984446134E+13      0.112682329693E+14      0.747937810313E+06      0.653127404431E+06      0.433518440129E-01     -0.496449593185E-01
     2      0.155472480000E+09      0.397800000000E+34     -0.935962132269E+13      0.116701800333E+14      0.774617362190E+06      0.621252216517E+06      0.412361033842E-01     -0.514158355100E-01
     2      0.156103200000E+09      0.397800000000E+34     -0.886299653956E+13      0.120516764682E+14      0.799939487500E+06      0.588288356578E+06      0.390481012957E-01     -0.530966114465E-01
     2      0.156733920000E+09      0.397800000000E+34     -0.835084038896E+13      0.124120537461E+14      0.823859812172E+06      0.554293589933E+06      0.367916719658E-01     -0.546843417642E-01
     2      0.157364640000E+09      0.397800000000E+34     -0.782405036479E+13      0.127506803478E+14      0.846336418628E+06      0.519327488446E+06      0.344707695241E-01     -0.561762441511E-01
     2      0.157995360000E+09      0.397800000000E+34     -0.728354960512E+13      0.130669628697E+14      0.867329919239E+06      0.483451326132E+06      0.320894610812E-01     -0.575697042224E-01
     2      0.158626080000E+09      0.397800000000E+34     -0.673028527449E+13      0.133603470635E+14      0.886803525345E+06      0.446727971781E+06      0.296519196027E-01     -0.588622801019E-01
     2      0.159256800000E+09      0.397800000000E+34     -0.616522690408E+13      0.136303188078E+14      0.904723111723E+06      0.409221778787E+06      0.271624165957E-01     -0.600517067013E-01
     2      0.159887520000E+09      0.397800000000E+34     -0.558936469278E+13      0.138764050086E+14      0.921057276390E+06      0.370998472380E+06      0.246253146239E-01     -0.611358996894E-01
     2      0.160518240000E+09      0.397800000000E+34     -0.500370777193E+13      0.140981744284E+14      0.935777395629E+06      0.332125034444E+06      0.220450596627E-01     -0.621129591445E-01
     2      0.161148960000E+09      0.397800000000E+34     -0.440928243697E+13      0.142952384423E+14      0.948857674149E+06      0.292669586146E+06      0.194261733079E-01     -0.629811728841E-01
     2      0.161779680000E+09      0.397800000000E+34     -0.380713034895E+13      0.144672517186E+14      0.960275190289E+06      0.252701268556E+06      0.167732448524E-01     -0.637390194651E-01
     2      0.162410400000E+09      0.397800000000E+34     -0.319830670915E+13      0.146139128241E+14      0.970009936186E+06      0.212290121489E+06      0.140909232440E-01     -0.643851708498E-01
     2      0.163041120000E+09      0.397800000000E+34     -0.258387840997E+13      0.147349647523E+14      0.978044852833E+06      0.171506960765E+06      0.113839089384E-01     -0.649184947335E-01
     2      0.163671840000E+09      0.397800000000E+34     -0.196492216534E+13      0.148301953738E+14      0.984365859978E+06      0.130423254117E+06      0.865694566235E-02     -0.653380565284E-01
     2      0.164302560000E+09      0.397800000000E+34     -0.134252262386E+13      0.148994378082E+14      0.988961880795E+06      0.891109959459E+05      0.591481210098E-02     -0.656431210017E-01
     2      0.164933280000E+09      0.397800000000E+34     -0.717770468109E+12      0.149425707160E+14      0.991824861295E+06      0.476425811663E+05      0.316231352345E-02     -0.658331535635E-01
     2      0.165564000000E+09      0.397800000000E+34     -0.917605033556E+11      0.149595185121E+14      0.992949784439E+06      0.609067833660E+04      0.404273362401E-03     -0.659078212042E-01
     2      0.166194720000E+09      0.397800000000E+34      0.534410260973E+12      0.149502514972E+14      0.992334678932E+06     -0.354718976811E+05     -0.235447523854E-02     -0.658669930776E-01
     2      0.166825440000E+09      0.397800000000E+34      0.115964453367E+13      0.149147859108E+14      0.989980622677E+06     -0.769723133215E+05     -0.510909789432E-02     -0.657107407305E-01
     2      0.167456160000E+09      0.397800000000E+34      0.178284666461E+13      0.148531839023E+14      0.985891740883E+06     -0.118337843948E+06     -0.785476745012E-02     -0.654393379768E-01
     2      0.168086880000E+09      0.397800000000E+34      0.240292456478E+13      0.147655534219E+14      0.980075198840E+06     -0.159496001295E+06     -0.105866724404E-01     -0.650532604186E-01
     2      0.168717600000E+09      0.397800000000E+34      0.301879162000E+13      0.146520480318E+14      0.972541189360E+06     -0.200374660493E+06     -0.133000255205E-01     -0.645531846119E-01
     2      0.169348320000E+09      0.397800000000E+34      0.362936859512E+13      0.145128666371E+14      0.963302914918E+06     -0.240902186462E+06     -0.159900718557E-01     -0.639399868812E-01
     2      0.169979040000E+09      0.397800000000E+34      0.423358552522E+13      0.143482531368E+14      0.952376564512E+06     -0.281007559442E+06     -0.186520974537E-01     -0.632147417843E-01
     2      0.170609760000E+09      0.397800000000E+34      0.483038359063E+13      0.141584959970E+14      0.939781285298E+06     -0.320620499446E+06     -0.212814374254E-01     -0.623787202287E-01
     2      0.171240480000E+09      0.397800000000E+34      0.541871697238E+13      0.139439277449E+14      0.925539149035E+06     -0.359671589419E+06     -0.238734841592E-01     -0.614333872448E-01
     2      0.171871200000E+09      0.397800000000E+34      0.599755468486E+13      0.137049243863E+14      0.909675113405E+06     -0.398092396883E+06     -0.264236953959E-01     -0.603803994185E-01
     2      0.172501920000E+09      0.397800000000E+34      0.656588238253E+13      0.134419047467E+14      0.892216978281E+06     -0.435815593856E+06     -0.289276021878E-01     -0.592216019883E-01
     2      0.173132640000E+09      0.397800000000E+34      0.712270413739E+13      0.131553297374E+14      0.873195337009E+06     -0.472775074838E+06     -0.313808167306E-01     -0.579590256114E-01
     2      0.173763360000E+09      0.397800000000E+34      0.766704418431E+13      0.128457015477E+14      0.852643522797E+06     -0.508906072651E+06     -0.337790400522E-01     -0.565948828059E-01
     2      0.174394080000E+09      0.397800000000E+34      0.819794863086E+13      0.125135627648E+14      0.830597550301E+06     -0.544145271938E+06     -0.361180695461E-01     -0.551315640729E-01
     2      0.175024800000E+09      0.397800000000E+34      0.871448712895E+13      0.121594954232E+14      0.807096052518E+06     -0.578430920115E+06     -0.383938063361E-01     -0.535716337079E-01
     2      0.175655520000E+09      0.397800000000E+34      0.921575450514E+13      0.117841199847E+14      0.782180213081E+06     -0.611702935585E+06     -0.406022624592E-01     -0.519178253069E-01
     2      0.176286240000E+09      0.397800000000E+34      0.970087234683E+13      0.113880942508E+14      0.755893694092E+06     -0.643903013023E+06     -0.427395678539E-01     -0.501730369762E-01
     2      0.176916960000E+09      0.397800000000E+34      0.101689905416E+14      0.109721122105E+14      0.728282559608E+06     -0.674974725551E+06     -0.448019771420E-01     -0.483403262539E-01
     2      0.177547680000E+09      0.397800000000E+34      0.106192887670E+14      0.105369028238E+14      0.699395194922E+06     -0.704863623621E+06     -0.467858761921E-01     -0.464229047516E-01
     2      0.178178400000E+09      0.397800000000E+34      0.110509779279E+14      0.100832287443E+14      0.669282221769E+06     -0.733517330426E+06     -0.486877884525E-01     -0.444241325270E-01
     2      0.178809120000E+09      0.397800000000E+34      0.114633015394E+14      0.961188498298E+13      0.637996409624E+06     -0.760885633690E+06     -0.505043810443E-01     -0.423475121950E-01
     2      0.179439840000E+09      0.397800000000E+34      0.118555370525E+14      0.912369751474E+13      0.605592583220E+06     -0.786920573656E+06     -0.522324706009E-01     -0.401966827905E-01
     2      0.180070560000E+09      0.397800000000E+34      0.122269971202E+14      0.861952183117E+13      0.572127526482E+06     -0.811576527129E+06     -0.538690288473E-01     -0.379754133912E-01
     2      0.180701280000E+09      0.397800000000E+34      0.125770308022E+14      0.810024144134E+13      0.537659883019E+06     -0.834810287429E+06     -0.554111879061E-01     -0.356875965123E-01
     2      0.181332000000E+09      0.397800000000E+34      0.129050247051E+14      0.756676632353E+13      0.502250053353E+06     -0.856581140104E+06     -0.568562453237E-01     -0.333372412861E-01
     2      0.181962720000E+09      0.397800000000E+34      0.132104040581E+14      0.702003133065E+13      0.465960089079E+06     -0.876850934275E+06     -0.582016688058E-01     -0.309284664357E-01
     2      0.182593440000E+09      0.397800000000E+34      0.134926337194E+14      0.646099455199E+13      0.428853584124E+06     -0.895584149493E+06     -0.594451006547E-01     -0.284654930579E-01
     2      0.183224160000E+09      0.397800000000E+34      0.137512191144E+14      0.589063563426E+13      0.390995563310E+06     -0.912747957986E+06     -0.605843619015E-01     -0.259526372262E-01
     2      0.183854880000E+09      0.397800000000E+34      0.139857071025E+14      0.530995406492E+13      0.352452368399E+06     -0.928312282183E+06     -0.616174561238E-01     -0.233943024271E-01
     2      0.184485600000E+09      0.397800000000E+34      0.141956867708E+14      0.471996742067E+13      0.313291541843E+06     -0.942249847422E+06     -0.625425729445E-01     -0.207949718438E-01
     2      0.185116320000E+09      0.397800000000E+34      0.143807901545E+14      0.412170958426E+13      0.273581708420E+06     -0.954536229747E+06     -0.633580912047E-01     -0.181592004997E-01
     2      0.185747040000E+09      0.397800000000E+34      0.145406928814E+14      0.351622893274E+13      0.233392454980E+06     -0.965149898707E+06     -0.640625818036E-01     -0.154916072763E-01
     2      0.186377760000E+09      0.397800000000E+34      0.146751147407E+14      0.290458650030E+13      0.192794208500E+06     -0.974072255086E+06     -0.646548102039E-01     -0.127968668196E-01
     2      0.187008480000E+09      0.397800000000E+34      0.147838201737E+14      0.228785411895E+13      0.151858112668E+06     -0.981287663497E+06     -0.651337385945E-01     -0.100797013475E-01
     2      0.187639200000E+09      0.397800000000E+34      0.148666186870E+14      0.166711254021E+13      0.110655903215E+06     -0.986783479779E+06     -0.654985277092E-01     -0.734487237537E-02
     2      0.188269920000E+09      0.397800000000E+34      0.149233651857E+14      0.104344954127E+13      0.692597822059E+05     -0.990550073153E+06     -0.657485382977E-01     -0.459717237180E-02
     2      0.188900640000E+09      0.397800000000E+34      0.149539602282E+14      0.417958018762E+12      0.277422915107E+05     -0.992580843107E+06     -0.658833322458E-01     -0.184141636026E-02
     2      0.189531360000E+09      0.397800000000E+34      0.149583502003E+14     -0.208265926400E+12     -0.138238143129E+05     -0.992872230952E+06     -0.659026733426E-01      0.917566518507E-03
     2      0.190162080000E+09      0.397800000000E+34      0.149365274091E+14     -0.834124909826E+12     -0.553656955152E+05     -0.991423726064E+06     -0.658065276953E-01      0.367494146907E-02
     2      0.190792800000E+09      0.397800000000E+34      0.148885300965E+14     -0.145852218668E+13     -0.968105547973E+05     -0.988237866781E+06     -0.655950637879E-01      0.642587651371E-02
     2      0.191423520000E+09      0.397800000000E+34      0.148144423722E+14     -0.208036357358E+13     -0.138085764880E+06     -0.983320235948E+06     -0.652686521861E-01      0.916555095987E-02
     2      0.192054240000E+09      0.397800000000E+34      0.147143940662E+14     -0.269855936606E+13     -0.179118995774E+06     -0.976679451139E+06     -0.648278648881E-01      0.118891638479E-01
     2      0.192684960000E+09      0.397800000000E+34      0.145885605016E+14     -0.331202624814E+13     -0.219838341532E+06     -0.968327149555E+06     -0.642734743223E-01      0.145919423641E-01
     2      0.193315680000E+09      0.397800000000E+34      0.144371621869E+14     -0.391968919067E+13     -0.260172446251E+06     -0.958277967628E+06     -0.636064519933E-01      0.172691502047E-01
     2      0.193946400000E+09      0.397800000000E+34      0.142604644301E+14     -0.452048333526E+13     -0.300050629120E+06     -0.946549515378E+06     -0.628279667798E-01      0.199160958754E-01
     2      0.194577120000E+09      0.397800000000E+34      0.140587768733E+14     -0.511335586027E+13     -0.339403008277E+06     -0.933162345548E+06     -0.619393828863E-01      0.225281409128E-01
     2      0.195207840000E+09      0.397800000000E+34      0.138324529505E+14     -0.569726782577E+13     -0.378160623270E+06     -0.918139917589E+06     -0.609422574523E-01      0.251007080130E-01
     2      0.195838560000E+09      0.397800000000E+34      0.135818892679E+14     -0.627119599419E+13     -0.416255555901E+06     -0.901508556555E+06     -0.598383378237E-01      0.276292890523E-01
     2      0.196469280000E+09      0.397800000000E+34      0.133075249091E+14     -0.683413462337E+13     -0.453621049247E+06     -0.883297406963E+06     -0.586295584906E-01      0.301094529877E-01
     2      0.197100000000E+09      0.397800000000E+34      0.130098406657E+14     -0.738509722904E+13     -0.490191624639E+06     -0.863538381728E+06     -0.573180376977E-01      0.325368536212E-01
     2      0.197730720000E+09      0.397800000000E+34      0.126893581946E+14     -0.792311831353E+13     -0.525903196414E+06     -0.842266106234E+06     -0.559060737321E-01      0.349072372166E-01
     2      0.198361440000E+09      0.397800000000E+34      0.123466391038E+14     -0.844725505766E+13     -0.560693184207E+06     -0.819517857662E+06     -0.543961408956E-01      0.372164499533E-01
     2      0.198992160000E+09      0.397800000000E+34      0.119822839686E+14     -0.895658897294E+13     -0.594500622624E+06     -0.795333499663E+06     -0.527908851693E-01      0.394604452053E-01
     2      0.199622880000E+09      0.397800000000E+34      0.115969312789E+14     -0.945022751111E+13     -0.627266268076E+06     -0.769755412500E+06     -0.510931195763E-01      0.416352906330E-01
     2      0.200253600000E+09      0.397800000000E+34      0.111912563203E+14     -0.992730562823E+13     -0.658932702590E+06     -0.742828418785E+06     -0.493058192527E-01      0.437371750734E-01
     2      0.200884320000E+09      0.397800000000E+34      0.107659699907E+14     -0.103869873006E+14     -0.689444434435E+06     -0.714599704934E+06     -0.474321162335E-01      0.457624152194E-01
     2      0.201515040000E+09      0.397800000000E+34      0.103218175550E+14     -0.108284669896E+14     -0.718747995361E+06     -0.685118738471E+06     -0.454752939645E-01      0.477074620738E-01
     2      0.202145760000E+09      0.397800000000E+34      0.985957733827E+13     -0.112509710537E+14     -0.746792034297E+06     -0.654437181351E+06     -0.434387815483E-01      0.495689071690E-01
     2      0.202776480000E+09      0.397800000000E+34      0.938005936270E+13     -0.116537591037E+14     -0.773527407335E+06     -0.622608799420E+06     -0.413261477351E-01      0.513434885397E-01
     2      0.203407200000E+09      0.397800000000E+34      0.888410392755E+13     -0.120361253007E+14     -0.798907263854E+06     -0.589689368203E+06     -0.391410946690E-01      0.530280964389E-01
     2      0.204037920000E+09      0.397800000000E+34      0.837258013684E+13     -0.123973995925E+14     -0.822887128615E+06     -0.555736575162E+06     -0.368874514003E-01      0.546197787879E-01
     2      0.204668640000E+09      0.397800000000E+34      0.784638437634E+13     -0.127369488879E+14     -0.845424979703E+06     -0.520809918604E+06     -0.345691671760E-01      0.561157463489E-01
     2      0.205299360000E+09      0.397800000000E+34      0.730643874271E+13     -0.130541781666E+14     -0.866481322162E+06     -0.484970603418E+06     -0.321903045183E-01      0.575133776132E-01
     2      0.205930080000E+09      0.397800000000E+34      0.675368942767E+13     -0.133485315211E+14     -0.886019257209E+06     -0.448281433823E+06     -0.297550321064E-01      0.588102233951E-01
     2      0.206560800000E+09      0.397800000000E+34      0.618910505990E+13     -0.136194931315E+14     -0.904004546891E+06     -0.410806703305E+06     -0.272676174710E-01      0.600040111236E-01
     2      0.207191520000E+09      0.397800000000E+34      0.561367500763E+13     -0.138665881693E+14     -0.920405674086E+06     -0.372612081957E+06     -0.247324195158E-01      0.610926488247E-01
     2      0.207822240000E+09      0.397800000000E+34      0.502840764488E+13     -0.140893836292E+14     -0.935193897730E+06     -0.333764501397E+06     -0.221538808794E-01      0.620742287878E-01
     2      0.208452960000E+09      0.397800000000E+34      0.443432858441E+13     -0.142874890882E+14     -0.948343303185E+06     -0.294332037475E+06     -0.195365201498E-01      0.629470309084E-01
     2      0.209083680000E+09      0.397800000000E+34      0.383247888048E+13     -0.144605573895E+14     -0.959830847653E+06     -0.254383790983E+06     -0.168849239461E-01      0.637095257026E-01
     2      0.209714400000E+09      0.397800000000E+34      0.322391320445E+13     -0.146082852511E+14     -0.969636400550E+06     -0.213989766562E+06     -0.142037388813E-01      0.643603769868E-01
     2      0.210345120000E+09      0.397800000000E+34      0.260969799667E+13     -0.147304137972E+14     -0.977742778787E+06     -0.173220750027E+06     -0.114976634194E-01      0.648984442202E-01
     2      0.210975840000E+09      0.397800000000E+34      0.199090959763E+13     -0.148267290117E+14     -0.984135776882E+06     -0.132148184322E+06     -0.877143964165E-02      0.653227845024E-01
     2      0.211606560000E+09      0.397800000000E+34      0.136863236180E+13     -0.148970621135E+14     -0.988804191850E+06     -0.908440443250E+05     -0.602984493725E-02      0.656326542265E-01
     2      0.212237280000E+09      0.397800000000E+34      0.743956757437E+12     -0.149412898520E+14     -0.991739842836E+06     -0.493807107236E+05     -0.327768363099E-02      0.658275103816E-01
     2      0.212868000000E+09      0.397800000000E+34      0.117977455655E+12     -0.149593347232E+14     -0.992937585454E+06     -0.783084317174E+04     -0.519778564428E-03      0.659070115051E-01
     2      0.213498720000E+09      0.397800000000E+34     -0.508208587852E+12     -0.149511651055E+14     -0.992395320798E+06      0.337327470353E+05      0.223903735557E-02      0.658710182802E-01
     2      0.214129440000E+09      0.397800000000E+34     -0.113350405510E+13     -0.149167953154E+14     -0.990113999122E+06      0.752372245548E+05      0.499392962598E-02      0.657195937808E-01
     2      0.214760160000E+09      0.397800000000E+34     -0.175681318873E+13     -0.148562855817E+14     -0.986097618175E+06      0.116609857632E+06      0.774007061948E-02      0.654530033603E-01
     2      0.215390880000E+09      0.397800000000E+34     -0.237704371221E+13     -0.147697419408E+14     -0.980353216195E+06      0.157778145554E+06      0.104726480443E-01      0.650717141872E-01
     2      0.216021600000E+09      0.397800000000E+34     -0.299310874390E+13     -0.146573160502E+14     -0.972890859575E+06      0.198669945699E+06      0.131868733774E-01      0.645763944262E-01
     2      0.216652320000E+09      0.397800000000E+34     -0.360392870170E+13     -0.145192049233E+14     -0.963723625222E+06      0.239213599958E+06      0.158779902553E-01      0.639679120672E-01
     2      0.217283040000E+09      0.397800000000E+34     -0.420843319491E+13     -0.143556505836E+14     -0.952867577644E+06      0.279338060306E+06      0.185412828097E-01      0.632473334043E-01
     2      0.217913760000E+09      0.397800000000E+34     -0.480556289991E+13     -0.141669396411E+14     -0.940341740798E+06      0.318973013307E+06      0.211720839310E-01      0.624159211675E-01
     2      0.218544480000E+09      0.397800000000E+34     -0.539427141656E+13     -0.139534027896E+14     -0.926168064748E+06      0.358049003328E+06      0.237657834470E-01      0.614751323095E-01
     2      0.219175200000E+09      0.397800000000E+34     -0.597352710185E+13     -0.137154142275E+14     -0.910371387209E+06      0.396497554257E+06      0.263178362019E-01      0.604266154529E-01
     2      0.219805920000E+09      0.397800000000E+34     -0.654231487779E+13     -0.134533910021E+14     -0.892979390013E+06      0.434251289492E+06      0.288237700208E-01      0.592722080010E-01
     2      0.220436640000E+09      0.397800000000E+34     -0.709963801013E+13     -0.131677922784E+14     -0.874022550605E+06      0.471244050015E+06      0.312791935470E-01      0.580139329182E-01
     2      0.221067360000E+09      0.397800000000E+34     -0.764451985510E+13     -0.128591185349E+14     -0.853534088635E+06      0.507411010329E+06      0.336798039369E-01      0.566539951845E-01
     2      0.221698080000E+09      0.397800000000E+34     -0.817600557083E+13     -0.125279106864E+14     -0.831549907740E+06      0.542688792054E+06      0.360213944009E-01      0.551947779321E-01
     2      0.222328800000E+09      0.397800000000E+34     -0.869316379061E+13     -0.121747491358E+14     -0.808108532632E+06      0.577015574992E+06      0.382998615747E-01      0.536388382688E-01
     2      0.222959520000E+09      0.397800000000E+34     -0.919508825498E+13     -0.118002527577E+14     -0.783251041586E+06      0.610331205459E+06      0.405112127103E-01      0.519889027975E-01
     2      0.223590240000E+09      0.397800000000E+34     -0.968089939986E+13     -0.114050778132E+14     -0.757020994454E+06      0.642577301700E+06      0.426515726725E-01      0.502478628373E-01
     2      0.224220960000E+09      0.397800000000E+34     -0.101497458979E+14     -0.109899168004E+14     -0.729464356333E+06      0.673697356191E+06      0.447171907301E-01      0.484187693578E-01
     2      0.224851680000E+09      0.397800000000E+34     -0.106008061503E+14     -0.105554972404E+14     -0.700629417016E+06      0.703636834665E+06      0.467044471282E-01      0.465048276317E-01
     2      0.225482400000E+09      0.397800000000E+34     -0.110332897265E+14     -0.101025804028E+14     -0.670566706371E+06      0.732343271679E+06      0.486098594318E-01      0.445093916186E-01
     2      0.226113120000E+09      0.397800000000E+34     -0.114464387496E+14     -0.963195997165E+13     -0.639328905790E+06      0.759766362549E+06      0.504300886278E-01      0.424359580874E-01
     2      0.226743840000E+09      0.397800000000E+34     -0.118395292241E+14     -0.914446065425E+13     -0.606970755875E+06      0.785858051507E+06      0.521619449767E-01      0.402881604885E-01
     2      0.227374560000E+09      0.397800000000E+34     -0.122118723048E+14     -0.864093673631E+13     -0.573548960508E+06      0.810572615910E+06      0.538023936023E-01      0.380697625865E-01
     2      0.228005280000E+09      0.397800000000E+34     -0.125628155038E+14     -0.812227058474E+13     -0.539122087487E+06      0.833866746366E+06      0.553485598095E-01      0.357846518650E-01
     2      0.228636000000E+09      0.397800000000E+34     -0.128917438342E+14     -0.758937110147E+13     -0.503750465890E+06      0.855699622629E+06      0.567977341222E-01      0.334368327141E-01
     2      0.229266720000E+09      0.397800000000E+34     -0.131980808873E+14     -0.704317213067E+13     -0.467496080359E+06      0.876032985128E+06      0.581473770313E-01      0.310304194129E-01
     2      0.229897440000E+09      0.397800000000E+34     -0.134812898433E+14     -0.648463082233E+13     -0.430422462475E+06      0.894831202017E+06      0.593951234450E-01      0.285696289201E-01
     2      0.230528160000E+09      0.397800000000E+34     -0.137408744115E+14     -0.591472595492E+13     -0.392594579429E+06      0.912061331613E+06      0.605387868332E-01      0.260587734840E-01
     2      0.231158880000E+09      0.397800000000E+34     -0.139763797002E+14     -0.533445622025E+13     -0.354078720173E+06      0.927693180122E+06      0.615763630589E-01      0.235022530860E-01
     2      0.231789600000E+09      0.397800000000E+34     -0.141873930139E+14     -0.474483847334E+13     -0.314942379258E+06      0.941699354553E+06      0.625060338909E-01      0.209045477299E-01
     2      0.232420320000E+09      0.397800000000E+34     -0.143735445762E+14     -0.414690595049E+13     -0.275254138556E+06      0.954055310719E+06      0.633261701892E-01      0.182702095914E-01
     2      0.233051040000E+09      0.397800000000E+34     -0.145345081785E+14     -0.354170645872E+13     -0.235083547081E+06      0.964739396247E+06      0.640353347606E-01      0.156038550409E-01
     2      0.233681760000E+09      0.397800000000E+34     -0.146700017506E+14     -0.293030053952E+13     -0.194500999108E+06      0.973732888522E+06      0.646322848769E-01      0.129101565539E-01
     2      0.234312480000E+09      0.397800000000E+34     -0.147797878559E+14     -0.231375961045E+13     -0.153577610818E+06      0.981020027499E+06      0.651159744525E-01      0.101938345227E-01
     2      0.234943200000E+09      0.397800000000E+34     -0.148636741071E+14     -0.169316408758E+13     -0.112385095678E+06      0.986588043315E+06      0.654855558779E-01      0.745964898508E-02
     2      0.235573920000E+09      0.397800000000E+34     -0.149215135033E+14     -0.106960149215E+13     -0.709956387647E+05      0.990427178673E+06      0.657403815045E-01      0.471239128230E-02
     2      0.236204640000E+09      0.397800000000E+34     -0.149532046876E+14     -0.444164544873E+12     -0.294817702742E+05      0.992530705934E+06      0.658800047803E-01      0.195687566316E-02
     2      0.236835360000E+09      0.397800000000E+34     -0.149586921251E+14      0.182050748951E+12      0.120837615811E+05      0.992894938914E+06      0.659041810316E-01     -0.802069152535E-03
     2      0.237466080000E+09      0.397800000000E+34     -0.149379661996E+14      0.807947020073E+12      0.536281180545E+05      0.991519239335E+06      0.658128678924E-01     -0.355960843569E-02
     2      0.238096800000E+09      0.397800000000E+34     -0.148910632308E+14      0.143242745829E+13      0.950784975069E+05      0.988406017952E+06      0.656062253784E-01     -0.631090992026E-02
     2      0.238727520000E+09      0.397800000000E+34     -0.148180654108E+14      0.205439773448E+13      0.136362262983E+06      0.983560730320E+06      0.652846156064E-01     -0.905115227120E-02
     2      0.239358240000E+09      0.397800000000E+34     -0.147191006597E+14      0.267276791828E+13      0.177407069498E+06      0.976991867243E+06      0.648486021600E-01     -0.117755335333E-01
     2      0.239988960000E+09      0.397800000000E+34     -0.145943424017E+14      0.328645438809E+13      0.218140990818E+06      0.968710939885E+06      0.642989491021E-01     -0.144792795461E-01
     2      0.240619680000E+09      0.397800000000E+34     -0.144440092611E+14      0.389438172995E+13      0.258492645495E+06      0.958732459608E+06      0.636366196355E-01     -0.171576523100E-01
     2      0.241250400000E+09      0.397800000000E+34     -0.142683646792E+14      0.449548462211E+13      0.298391321961E+06      0.947073912533E+06      0.628627744155E-01     -0.198059582890E-01
     2      0.241881120000E+09      0.397800000000E+34     -0.140677164526E+14      0.508870970188E+13      0.337767102439E+06      0.933755728905E+06      0.619787695155E-01     -0.224195566357E-01
     2      0.242511840000E+09      0.397800000000E+34     -0.138424161939E+14      0.567301741150E+13      0.376550985468E+06      0.918801247289E+06      0.609861540511E-01     -0.249938673238E-01
     2      0.243142560000E+09      0.397800000000E+34     -0.135928587156E+14      0.624738381987E+13      0.414675006815E+06      0.902236673668E+06      0.598866674653E-01     -0.275243791741E-01
     2      0.243773280000E+09      0.397800000000E+34     -0.133194813381E+14      0.681080241687E+13      0.452072358580E+06      0.884091035527E+06      0.586822364801E-01     -0.300066577595E-01
     2      0.244404000000E+09      0.397800000000E+34     -0.130227631232E+14      0.736228587713E+13      0.488677506267E+06      0.864396130980E+06      0.573749717204E-01     -0.324363531764E-01
     2      0.245034720000E+09      0.397800000000E+34     -0.127032240351E+14      0.790086779021E+13      0.524426303623E+06      0.843186473051E+06      0.559671640153E-01     -0.348092076669E-01
     2      0.245665440000E+09      0.397800000000E+34     -0.123614240288E+14      0.842560435416E+13      0.559256105052E+06      0.820499229192E+06      0.544612803839E-01     -0.371210630803E-01
     2      0.246296160000E+09      0.397800000000E+34     -0.119979620688E+14      0.893557602934E+13      0.593105875390E+06      0.796374156153E+06      0.528599597115E-01     -0.393678681596E-01
     2      0.246926880000E+09      0.397800000000E+34     -0.116134750800E+14      0.942988914990E+13      0.625916296862E+06      0.770853530310E+06      0.511660081260E-01     -0.415456856409E-01
     2      0.247557600000E+09      0.397800000000E+34     -0.112086368308E+14      0.990767748976E+13      0.657629873032E+06      0.743982073584E+06      0.493823940801E-01     -0.436506991531E-01
     2      0.248188320000E+09      0.397800000000E+34     -0.107841567531E+14      0.103681037806E+14      0.688191029558E+06      0.715806875069E+06      0.475122431495E-01     -0.456792199057E-01
     2      0.248819040000E+09      0.397800000000E+34     -0.103407786987E+14      0.108103611790E+14      0.717546211578E+06      0.686377308515E+06      0.455588325556E-01     -0.476276931525E-01
     2      0.249449760000E+09      0.397800000000E+34     -0.987927963599E+13      0.112336746806E+14      0.745643977561E+06      0.655744945804E+06      0.435255854229E-01     -0.494927044217E-01
     2      0.250080480000E+09      0.397800000000E+34     -0.940046828816E+13      0.116373024777E+14      0.772435089450E+06      0.623963466581E+06      0.414160647798E-01     -0.512709854984E-01
     2      0.250711200000E+09      0.397800000000E+34     -0.890518371629E+13      0.120205372599E+14      0.797872598946E+06      0.591088564181E+06      0.392339673154E-01     -0.529594201527E-01
     2      0.251341920000E+09      0.397800000000E+34     -0.839429384879E+13      0.123827074527E+14      0.821911929783E+06      0.557177848035E+06      0.369831169011E-01     -0.545550495998E-01
     2      0.251972640000E+09      0.397800000000E+34     -0.786869396059E+13      0.127231783953E+14      0.844510955837E+06      0.522290742720E+06      0.346674578897E-01     -0.560550776853E-01
     2      0.252603360000E+09      0.397800000000E+34     -0.732930510416E+13      0.130413534520E+14      0.865630074954E+06      0.486488383819E+06      0.322910482038E-01     -0.574568757850E-01
     2      0.253234080000E+09      0.397800000000E+34     -0.677707249556E+13      0.133366750581E+14      0.885232278341E+06      0.449833510789E+06      0.298580522241E-01     -0.587579874115E-01
     2      0.253864800000E+09      0.397800000000E+34     -0.621296385802E+13      0.136086256971E+14      0.903283215424E+06      0.412390357020E+06      0.273727334924E-01     -0.599561325183E-01
     2      0.254495520000E+09      0.397800000000E+34     -0.563796772612E+13      0.138567288070E+14      0.919751254043E+06      0.374224537271E+06      0.248394472400E-01     -0.610492114963E-01
     2      0.255126240000E+09      0.397800000000E+34     -0.505309171351E+13      0.140805496163E+14      0.934607535882E+06      0.335402932692E+06      0.222626327556E-01     -0.620353088520E-01
     2      0.255756960000E+09      0.397800000000E+34     -0.445936074717E+13      0.142796959050E+14      0.947826027042E+06      0.295993573614E+06      0.196468056061E-01     -0.629126965650E-01
     2      0.256387680000E+09      0.397800000000E+34     -0.385781527135E+13      0.144538186925E+14      0.959383563659E+06      0.256065520342E+06      0.169965497235E-01     -0.636798371159E-01
     2      0.257018400000E+09      0.397800000000E+34     -0.324950942432E+13      0.146026128490E+14      0.969259892500E+06      0.215688742134E+06      0.143165093721E-01     -0.643353861804E-01
     2      0.257649120000E+09      0.397800000000E+34     -0.263550919113E+13      0.147258176300E+14      0.977437706452E+06      0.174933994582E+06      0.116113810102E-01     -0.648781949855E-01
     2      0.258279840000E+09      0.397800000000E+34     -0.201689053555E+13      0.148232171336E+14      0.983902674853E+06      0.133872695627E+06      0.888590505945E-02     -0.653073123222E-01
     2      0.258910560000E+09      0.397800000000E+34     -0.139473751461E+13      0.148946406785E+14      0.988643468598E+06      0.925768004067E+05      0.614485759873E-02     -0.656219862126E-01
     2      0.259541280000E+09      0.397800000000E+34     -0.770140378883E+12      0.149399631033E+14      0.991651780004E+06      0.511186751586E+05      0.339304199392E-02     -0.658216652276E-01
     2      0.260172000000E+09      0.397800000000E+34     -0.144193661996E+12      0.149591049857E+14      0.992922337354E+06      0.957097041116E+04      0.635280480867E-03     -0.659059994531E-01
     2      0.260802720000E+09      0.397800000000E+34      0.482005737461E+12      0.149520327818E+14      0.992452914148E+06     -0.319935063302E+05     -0.212359428511E-02     -0.658748411035E-01
     2      0.261433440000E+09      0.397800000000E+34      0.110736047809E+13      0.149187588848E+14      0.990244332996E+06     -0.735019181691E+05     -0.487874769785E-02     -0.657282447803E-01
     2      0.262064160000E+09      0.397800000000E+34      0.173077469868E+13      0.148593416035E+14      0.986300464180E+06     -0.114881526457E+06     -0.762535167245E-02     -0.654664673767E-01
     2      0.262694880000E+09      0.397800000000E+34      0.235115593853E+13      0.147738850596E+14      0.980628218871E+06     -0.156059818257E+06     -0.103585931059E-01     -0.650899676270E-01
     2      0.263325600000E+09      0.397800000000E+34      0.296741705190E+13      0.146625390057E+14      0.973237537019E+06     -0.196964633418E+06     -0.130736823115E-01     -0.645994053035E-01
     2      0.263956320000E+09      0.397800000000E+34      0.357847811309E+13      0.145254985629E+14      0.964141369933E+06     -0.237524291024E+06     -0.157658614122E-01     -0.639956400594E-01
     2      0.264587040000E+09      0.397800000000E+34      0.418326830889E+13      0.143630038786E+14      0.953355657585E+06     -0.277667715007E+06     -0.184304126784E-01     -0.632797299231E-01
     2      0.265217760000E+09      0.397800000000E+34      0.478072781503E+13      0.141753397056E+14      0.940899300679E+06     -0.317324558701E+06     -0.210626667948E-01     -0.624529294438E-01
     2      0.265848480000E+09      0.397800000000E+34      0.536980965345E+13      0.139628349037E+14      0.926794127528E+06     -0.356425328115E+06     -0.236580110433E-01     -0.615166874930E-01
     2      0.266479200000E+09      0.397800000000E+34      0.594948152694E+13      0.137258618627E+14      0.911064855804E+06     -0.394901503712E+06     -0.262118973860E-01     -0.604726447255E-01
     2      0.267109920000E+09      0.397800000000E+34      0.651872762820E+13      0.134648358502E+14      0.893739049221E+06     -0.432685660485E+06     -0.287198504352E-01     -0.593226307046E-01
     2      0.267740640000E+09      0.397800000000E+34      0.707655041984E+13      0.131802142838E+14      0.874847069235E+06     -0.469711586108E+06     -0.311774752959E-01     -0.580686606960E-01
     2      0.268371360000E+09      0.397800000000E+34      0.762197238251E+13      0.128724959297E+14      0.854422021837E+06     -0.505914396967E+06     -0.335804652673E-01     -0.567129321358E-01
     2      0.269002080000E+09      0.397800000000E+34      0.815403772786E+13      0.125422200283E+14      0.832499699541E+06     -0.541230651861E+06     -0.359246093900E-01     -0.552578207802E-01
     2      0.269632800000E+09      0.397800000000E+34      0.867181407345E+13      0.121899653497E+14      0.809118518659E+06     -0.575598463173E+06     -0.382057998251E-01     -0.537058765422E-01
     2      0.270263520000E+09      0.397800000000E+34      0.917439407666E+13      0.118163491790E+14      0.784319451984E+06     -0.608957605327E+06     -0.404200390527E-01     -0.520598190231E-01
     2      0.270894240000E+09      0.397800000000E+34      0.966089702466E+13      0.114220262351E+14      0.758145956988E+06     -0.641249620318E+06     -0.425634468769E-01     -0.503225327467E-01
     2      0.271524960000E+09      0.397800000000E+34      0.101304703778E+14      0.110076875229E+14      0.730643899666E+06     -0.672417920158E+06     -0.446322672258E-01     -0.484970621046E-01
     2      0.272155680000E+09      0.397800000000E+34      0.105822912636E+14      0.105740591227E+14      0.701861474166E+06     -0.702407886040E+06     -0.466228747333E-01     -0.465866060210E-01
     2      0.272786400000E+09      0.397800000000E+34      0.110155679187E+14      0.101219009175E+14      0.671849118332E+06     -0.731166964048E+06     -0.485317810920E-01     -0.445945123476E-01
     2      0.273417120000E+09      0.397800000000E+34      0.114295410762E+14      0.965200526205E+13      0.640659425314E+06     -0.758644757255E+06     -0.503556411666E-01     -0.425242719959E-01
     2      0.274047840000E+09      0.397800000000E+34      0.118234852966E+14      0.916519559351E+13      0.608347051411E+06     -0.784793114035E+06     -0.520912588551E-01     -0.403795128206E-01
     2      0.274678560000E+09      0.397800000000E+34      0.121967102386E+14      0.866232498906E+13      0.574968620289E+06     -0.809566212445E+06     -0.537355926902E-01     -0.381639932620E-01
     2      0.275309280000E+09      0.397800000000E+34      0.125485618689E+14      0.814427467077E+13      0.540582623753E+06     -0.832920640520E+06     -0.552857611689E-01     -0.358815957595E-01
     2      0.275940000000E+09      0.397800000000E+34      0.128784236087E+14      0.761195246139E+13      0.505249319250E+06     -0.854815472353E+06     -0.567390478019E-01     -0.335363199485E-01
     2      0.276570720000E+09      0.397800000000E+34      0.131857174137E+14      0.706629119347E+13      0.469030624275E+06     -0.875212339805E+06     -0.580929058741E-01     -0.311322756510E-01
     2      0.277201440000E+09      0.397800000000E+34      0.134699047875E+14      0.650824707472E+13      0.431990007862E+06     -0.894075499747E+06     -0.593449629073E-01     -0.286736756743E-01
     2      0.277832160000E+09      0.397800000000E+34      0.137304877248E+14      0.593879801235E+13      0.394192379371E+06     -0.911371896693E+06     -0.604930248179E-01     -0.261648284277E-01
     2      0.278462880000E+09      0.397800000000E+34      0.139670095845E+14      0.535894189941E+13      0.355703974735E+06     -0.927071220726E+06     -0.615350797612E-01     -0.236101303734E-01
     2      0.279093600000E+09      0.397800000000E+34      0.141790558895E+14      0.476969486606E+13      0.316592240392E+06     -0.941145960613E+06     -0.624693016578E-01     -0.210140583214E-01
     2      0.279724320000E+09      0.397800000000E+34      0.143662550535E+14      0.417208949900E+13      0.276925715092E+06     -0.953571452016E+06     -0.632940533929E-01     -0.183811615851E-01
     2      0.280355040000E+09      0.397800000000E+34      0.145282790317E+14      0.356717303189E+13      0.236773909793E+06     -0.964325920710E+06     -0.640078896854E-01     -0.157160540086E-01
     2      0.280985760000E+09      0.397800000000E+34      0.146648438961E+14      0.295600551026E+13      0.196207185847E+06     -0.973390520746E+06     -0.646095596206E-01     -0.130234058819E-01
     2      0.281616480000E+09      0.397800000000E+34      0.147757103327E+14      0.233965793388E+13      0.155296631704E+06     -0.980749367469E+06     -0.650980088421E-01     -0.103079357566E-01
     2      0.282247200000E+09      0.397800000000E+34      0.148606840610E+14      0.171921037997E+13      0.114113938337E+06     -0.986389565360E+06     -0.654723813997E-01     -0.757440217705E-02
     2      0.282877920000E+09      0.397800000000E+34      0.149196161744E+14      0.109575011047E+13      0.727312736092E+05     -0.990301230630E+06     -0.657320212493E-01     -0.482759534184E-02
     2      0.283508640000E+09      0.397800000000E+34      0.149524034013E+14      0.470369666757E+12      0.312211558121E+05     -0.992477508543E+06     -0.658764734023E-01     -0.207232870929E-02
     2      0.284139360000E+09      0.397800000000E+34      0.149589882859E+14     -0.155835044915E+12     -0.103436734172E+05     -0.992914585425E+06     -0.659054847233E-01      0.686569437431E-03
     2      0.284770080000E+09      0.397800000000E+34      0.149393592889E+14     -0.781766673851E+12     -0.518903765659E+05     -0.991611695350E+06     -0.658190043732E-01      0.344426445137E-02
     2      0.285400800000E+09      0.397800000000E+34      0.148935508079E+14     -0.140632834791E+13     -0.933461478852E+05     -0.988571121480E+06     -0.656171838988E-01      0.619592379391E-02
     2      0.286031520000E+09      0.397800000000E+34      0.148216431170E+14     -0.202842559562E+13     -0.134638340974E+06     -0.983798192068E+06     -0.653003769669E-01      0.893672550326E-02
     2      0.286662240000E+09      0.397800000000E+34      0.147237622258E+14     -0.264696826416E+13     -0.175694596081E+06     -0.977301271114E+06     -0.648691387447E-01      0.116618666443E-01
     2      0.287292960000E+09      0.397800000000E+34      0.146000796594E+14     -0.326087242966E+13     -0.216442966912E+06     -0.969091743713E+06     -0.643242249267E-01      0.143665717254E-01
     2      0.287923680000E+09      0.397800000000E+34      0.144508121569E+14     -0.386906229671E+13     -0.256812046702E+06     -0.959183996106E+06     -0.636665904108E-01      0.170461010665E-01
     2      0.288554400000E+09      0.397800000000E+34      0.142762212922E+14     -0.447047208353E+13     -0.296731093348E+06     -0.947595390461E+06     -0.628973876246E-01      0.196957591052E-01
     2      0.289185120000E+09      0.397800000000E+34      0.140766130154E+14     -0.506404788963E+13     -0.336130153381E+06     -0.934346234459E+06     -0.620179645063E-01      0.223109026250E-01
     2      0.289815840000E+09      0.397800000000E+34      0.138523371168E+14     -0.564874954267E+13     -0.374940184544E+06     -0.919459745699E+06     -0.610298621421E-01      0.248869488923E-01
     2      0.290446560000E+09      0.397800000000E+34      0.136037866137E+14     -0.622355242124E+13     -0.413093176787E+06     -0.902962011014E+06     -0.599348120661E-01      0.274193836865E-01
     2      0.291077280000E+09      0.397800000000E+34      0.133313970618E+14     -0.678744925035E+13     -0.450522271444E+06     -0.884881940760E+06     -0.587347332256E-01      0.299037692114E-01
     2      0.291708000000E+09      0.397800000000E+34      0.130356457921E+14     -0.733945186659E+13     -0.487161878393E+06     -0.865251218148E+06     -0.574317286186E-01      0.323357518710E-01
     2      0.292338720000E+09      0.397800000000E+34      0.127170510741E+14     -0.787859294980E+13     -0.522947790998E+06     -0.844104243728E+06     -0.560280816085E-01      0.347110698998E-01
     2      0.292969440000E+09      0.397800000000E+34      0.123761712079E+14     -0.840392771812E+13     -0.557817298623E+06     -0.821478075106E+06     -0.545262519229E-01      0.370255608301E-01
     2      0.293600160000E+09      0.397800000000E+34      0.120136035456E+14     -0.891453558367E+13     -0.591709296524E+06     -0.797412362001E+06     -0.529288713428E-01      0.392751687865E-01
     2      0.294230880000E+09      0.397800000000E+34      0.116299834449E+14     -0.940952176573E+13     -0.624564392931E+06     -0.771949276766E+06     -0.512387390913E-01      0.414559515937E-01
     2      0.294861600000E+09      0.397800000000E+34      0.112259831552E+14     -0.988801885878E+13     -0.656325013119E+06     -0.745133440486E+06     -0.494588169277E-01      0.435640876842E-01
     2      0.295492320000E+09      0.397800000000E+34      0.108023106398E+14     -0.103491883525E+14     -0.686935500307E+06     -0.717011844784E+06     -0.475922239578E-01      0.455958827956E-01
     2      0.296123040000E+09      0.397800000000E+34      0.103597083353E+14     -0.107922221011E+14     -0.716342213188E+06     -0.687633769475E+06     -0.456422311678E-01      0.475477764439E-01
     2      0.296753760000E+09      0.397800000000E+34      0.989895185076E+13     -0.112163437397E+14     -0.744493619928E+06     -0.657050696207E+06     -0.436122556925E-01      0.494163481633E-01
     2      0.297384480000E+09      0.397800000000E+34      0.942084860804E+13     -0.116208100445E+14     -0.771340388471E+06     -0.625316218247E+06     -0.415058548268E-01      0.511983234997E-01
     2      0.298015200000E+09      0.397800000000E+34      0.892623642731E+13     -0.120049122356E+14     -0.796835472987E+06     -0.592485946563E+06     -0.393267197924E-01      0.528905797494E-01
     2      0.298645920000E+09      0.397800000000E+34      0.841598205871E+13     -0.123679772186E+14     -0.820934196314E+06     -0.558617412375E+06     -0.370786692690E-01      0.544901514305E-01
     2      0.299276640000E+09      0.397800000000E+34      0.789097966348E+13     -0.127093687646E+14     -0.843594328252E+06     -0.523769966337E+06     -0.347656427026E-01      0.559942354803E-01
     2      0.299907360000E+09      0.397800000000E+34      0.735214924705E+13     -0.130284886247E+14     -0.864776159561E+06     -0.488004674532E+06     -0.323916934025E-01      0.574001961670E-01
     2      0.300538080000E+09      0.397800000000E+34      0.680043504686E+13     -0.133247775785E+14     -0.884442571552E+06     -0.451384211459E+06     -0.299609814375E-01      0.587055697082E-01
     2      0.301168800000E+09      0.397800000000E+34      0.623680387768E+13     -0.135977164143E+14     -0.902559101134E+06     -0.413972750207E+06     -0.274777663467E-01      0.599080685891E-01
     2      0.301799520000E+09      0.397800000000E+34      0.566224343735E+13     -0.138468268385E+14     -0.919094001199E+06     -0.375835849995E+06     -0.249463996746E-01      0.610055855706E-01
     2      0.302430240000E+09      0.397800000000E+34      0.507776057602E+13     -0.140716723142E+14     -0.934018296265E+06     -0.337040341292E+06     -0.223713173460E-01      0.619961973821E-01
     2      0.303060960000E+09      0.397800000000E+34      0.448437953171E+13     -0.142718588259E+14     -0.947305833243E+06     -0.297654208699E+06     -0.197570318921E-01      0.628781680918E-01
     2      0.303691680000E+09      0.397800000000E+34      0.388314013546E+13     -0.144470355701E+14     -0.958933327275E+06     -0.257746471818E+06     -0.171081245429E-01      0.636499521488E-01
     2      0.304322400000E+09      0.397800000000E+34      0.327509598916E+13     -0.145968955700E+14     -0.968880402532E+06     -0.217387064301E+06     -0.144292371996E-01      0.643101970915E-01
     2      0.304953120000E+09      0.397800000000E+34      0.266131261925E+13     -0.147211762133E+14     -0.977129627925E+06     -0.176646711301E+06     -0.117250642995E-01      0.648577459174E-01
     2      0.305583840000E+09      0.397800000000E+34      0.204286560946E+13     -0.148196597129E+14     -0.983666547647E+06     -0.135596805533E+06     -0.900034459014E-02      0.652916391110E-01
     2      0.306214560000E+09      0.397800000000E+34      0.142083871602E+13     -0.148921734878E+14     -0.988479706507E+06     -0.943092821664E+05     -0.625985282485E-02      0.656111163248E-01
     2      0.306845280000E+09      0.397800000000E+34      0.796321968501E+12     -0.149385904660E+14     -0.991560670006E+06     -0.528564927699E+05     -0.350839139569E-02      0.658156177122E-01
     2      0.307476000000E+09      0.397800000000E+34      0.170409759636E+12     -0.149588293073E+14     -0.992904039112E+06     -0.113110785203E+05     -0.750781917781E-03      0.659047849082E-01
     2      0.308106720000E+09      0.397800000000E+34     -0.455801072450E+12     -0.149528545454E+14     -0.992507459727E+06      0.302541570909E+05      0.200814322000E-02      0.658784616575E-01
     2      0.308737440000E+09      0.397800000000E+34     -0.108121316633E+13     -0.149206766503E+14     -0.990371626808E+06      0.717663758375E+05      0.476354932321E-02      0.657366940883E-01
     2      0.309368160000E+09      0.397800000000E+34     -0.170473056027E+13     -0.148623520101E+14     -0.986500283152E+06      0.113152832399E+06      0.751060786410E-02      0.654797306316E-01
     2      0.309998880000E+09      0.397800000000E+34     -0.232526061279E+13     -0.147779828319E+14     -0.980900212836E+06      0.154341001839E+06      0.102445049430E-01      0.651080215857E-01
     2      0.310629600000E+09      0.397800000000E+34     -0.294171591735E+13     -0.146677169628E+14     -0.973581229328E+06      0.195258706694E+06      0.129604497243E-01      0.646222183271E-01
     2      0.311260320000E+09      0.397800000000E+34     -0.355301620794E+13     -0.145317476309E+14     -0.964556158292E+06      0.235834243460E+06      0.156536828314E-01      0.640231721692E-01
     2      0.311891040000E+09      0.397800000000E+34     -0.415809025213E+13     -0.143703131066E+14     -0.953840815110E+06      0.275996508243E+06      0.183194846876E-01      0.633119328703E-01
     2      0.312521760000E+09      0.397800000000E+34     -0.475587772823E+13     -0.141836962850E+14     -0.941453977171E+06      0.315675121358E+06      0.209531837859E-01      0.624897467943E-01
     2      0.313152480000E+09      0.397800000000E+34     -0.534533108343E+13     -0.139722241903E+14     -0.927417350961E+06      0.354800550664E+06      0.235501648758E-01      0.615580547260E-01
     2      0.313783200000E+09      0.397800000000E+34     -0.592541736948E+13     -0.137362674026E+14     -0.911755534030E+06      0.393304233410E+06      0.261058770509E-01      0.605184893471E-01
     2      0.314413920000E+09      0.397800000000E+34     -0.649512005284E+13     -0.134762394089E+14     -0.894495971883E+06      0.431118696382E+06      0.286158417237E-01      0.593728723745E-01
     2      0.315044640000E+09      0.397800000000E+34     -0.705344079601E+13     -0.131925958776E+14     -0.875668909888E+06      0.468177674146E+06      0.310756604736E-01      0.581232113680E-01
     2      0.315675360000E+09      0.397800000000E+34     -0.759940120702E+13     -0.128858338611E+14     -0.855307340275E+06      0.504416225164E+06      0.334810227553E-01      0.567716962128E-01
