 # Tag              Time [sec]                Mass [g]             posx [code]             posy [code]             velx [code]             vely [code]             accx [code]             accy [code]
     1      0.315360000000E+03      0.198900000000E+34     -0.299196000000E+14      0.626285067377E+09      0.415701626464E+02      0.198593692091E+07      0.131818120938E+00     -0.275925215423E-05
     1      0.631035360000E+06      0.198900000000E+34     -0.298933715943E+14      0.125283056820E+13      0.831575570887E+05      0.198419599066E+07      0.131702392005E+00     -0.551964444990E-02
     1      0.126175536000E+07      0.198900000000E+34     -0.298147585661E+14      0.250284051170E+13      0.166127783603E+06      0.197897799461E+07      0.131355869801E+00     -0.110268473802E-01
     1      0.189247536000E+07      0.198900000000E+34     -0.296838986988E+14      0.374846562480E+13      0.248806853881E+06      0.197029208285E+07      0.130779161381E+00     -0.165147171485E-01
     1      0.252319536000E+07      0.198900000000E+34     -0.295010213321E+14      0.498752310460E+13      0.331049882210E+06      0.195815348276E+07      0.129973277206E+00     -0.219736366327E-01
     1      0.315391536000E+07      0.198900000000E+34     -0.292664469608E+14      0.621784166124E+13      0.412712746905E+06      0.194258347235E+07      0.128939629388E+00     -0.273940393402E-01
     1      0.378463536000E+07      0.198900000000E+34     -0.289805866727E+14      0.743726532301E+13      0.493652342901E+06      0.192360934303E+07      0.127680029223E+00     -0.327664261770E-01
     1      0.441535536000E+07      0.198900000000E+34     -0.286439414287E+14      0.864365721462E+13      0.573726832568E+06      0.190126435187E+07      0.126196684038E+00     -0.380813821019E-01
     1      0.504607536000E+07      0.198900000000E+34     -0.282571011843E+14      0.983490330203E+13      0.652795894315E+06      0.187558766336E+07      0.124492193334E+00     -0.433295926326E-01
     1      0.567679536000E+07      0.198900000000E+34     -0.278207438566E+14      0.110089160973E+14      0.730720968548E+06      0.184662428083E+07      0.122569544238E+00     -0.485018601789E-01
     1      0.630751536000E+07      0.198900000000E+34     -0.273356341353E+14      0.121636383171E+14      0.807365500540E+06      0.181442496762E+07      0.120432106287E+00     -0.535891201715E-01
     1      0.693823536000E+07      0.198900000000E+34     -0.268026221432E+14      0.132970464878E+14      0.882595179803E+06      0.177904615816E+07      0.118083625527E+00     -0.585824569585E-01
     1      0.756895536000E+07      0.198900000000E+34     -0.262226419460E+14      0.144071544921E+14      0.956278175530E+06      0.174054985913E+07      0.115528217961E+00     -0.634731194431E-01
     1      0.819967536000E+07      0.198900000000E+34     -0.255967099154E+14      0.154920170496E+14      0.102828536769E+07      0.169900354077E+07      0.112770362340E+00     -0.682525364329E-01
     1      0.883039536000E+07      0.198900000000E+34     -0.249259229477E+14      0.165497331261E+14      0.109849057339E+07      0.165448001869E+07      0.109814892326E+00     -0.729123316752E-01
     1      0.946111536000E+07      0.198900000000E+34     -0.242114565409E+14      0.175784492652E+14      0.116677076809E+07      0.160705732626E+07      0.106666988020E+00     -0.774443385517E-01
     1      0.100918353600E+08      0.198900000000E+34     -0.234545627352E+14      0.185763628367E+14      0.123300630126E+07      0.155681857784E+07      0.103332166891E+00     -0.818406144058E-01
     1      0.107225553600E+08      0.198900000000E+34     -0.226565679177E+14      0.195417251958E+14      0.129708110618E+07      0.150385182313E+07      0.998162741062E-01     -0.860934544781E-01
     1      0.113532753600E+08      0.198900000000E+34     -0.218188704980E+14      0.204728447478E+14      0.135888290340E+07      0.144824989280E+07      0.961254722897E-01     -0.901954054257E-01
     1      0.119839953600E+08      0.198900000000E+34     -0.209429384568E+14      0.213680899125E+14      0.141830339759E+07      0.139011023583E+07      0.922662307198E-01     -0.941392784002E-01
     1      0.126147153600E+08      0.198900000000E+34     -0.200303067733E+14      0.222258919838E+14      0.147523846744E+07      0.132953474865E+07      0.882453139888E-01     -0.979181616631E-01
     1      0.132454353600E+08      0.198900000000E+34     -0.190825747339E+14      0.230447478788E+14      0.152958834818E+07      0.126662959650E+07      0.840697701427E-01     -0.101525432715E+00
     1      0.138761553600E+08      0.198900000000E+34     -0.181014031295E+14      0.238232227721E+14      0.158125780647E+07      0.120150502734E+07      0.797469183235E-01     -0.104954769916E+00
     1      0.145068753600E+08      0.198900000000E+34     -0.170885113442E+14      0.245599526102E+14      0.163015630744E+07      0.113427517856E+07      0.752843359341E-01     -0.108200163583E+00
     1      0.151375953600E+08      0.198900000000E+34     -0.160456743414E+14      0.252536465018E+14      0.167619817331E+07      0.106505787685E+07      0.706898453488E-01     -0.111255926533E+00
     1      0.157683153600E+08      0.198900000000E+34     -0.149747195524E+14      0.259030889800E+14      0.171930273369E+07      0.993974431648E+06      0.659715001935E-01     -0.114116704068E+00
     1      0.163990353600E+08      0.198900000000E+34     -0.138775236733E+14      0.265071421325E+14      0.175939446695E+07      0.921149422405E+06      0.611375712189E-01     -0.116777483367E+00
     1      0.170297553600E+08      0.198900000000E+34     -0.127560093753E+14      0.270647475949E+14      0.179640313263E+07      0.846710480180E+06      0.561965317914E-01     -0.119233602289E+00
     1      0.176604753600E+08      0.198900000000E+34     -0.116121419344E+14      0.275749284057E+14      0.183026389454E+07      0.770788063840E+06      0.511570430282E-01     -0.121480757549E+00
     1      0.182911953600E+08      0.198900000000E+34     -0.104479257866E+14      0.280367907178E+14      0.186091743447E+07      0.693515231302E+06      0.460279386017E-01     -0.123515012272E+00
     1      0.189219153600E+08      0.198900000000E+34     -0.926540101418E+13      0.284495253645E+14      0.188831005606E+07      0.615027406227E+06      0.408182092404E-01     -0.125332802902E+00
     1      0.195526353600E+08      0.198900000000E+34     -0.806663976985E+13      0.288124092766E+14      0.191239377899E+07      0.535462140552E+06      0.355369869541E-01     -0.126930945448E+00
     1      0.201833553600E+08      0.198900000000E+34     -0.685374264435E+13      0.291248067496E+14      0.193312642299E+07      0.454958873295E+06      0.301935290098E-01     -0.128306641077E+00
     1      0.208140753600E+08      0.198900000000E+34     -0.562883498453E+13      0.293861705566E+14      0.195047168177E+07      0.373658686047E+06      0.247972016880E-01     -0.129457481013E+00
     1      0.214447953600E+08      0.198900000000E+34     -0.439406316787E+13      0.295960429064E+14      0.196439918656E+07      0.291704055584E+06      0.193574638474E-01     -0.130381450767E+00
     1      0.220755153600E+08      0.198900000000E+34     -0.315159084027E+13      0.297540562450E+14      0.197488455934E+07      0.209238604038E+06      0.138838503263E-01     -0.131076933664E+00
     1      0.227062353600E+08      0.198900000000E+34     -0.190359512357E+13      0.298599338986E+14      0.198190945544E+07      0.126406847056E+06      0.838595521148E-02     -0.131542713674E+00
     1      0.233369553600E+08      0.198900000000E+34     -0.652262799536E+12      0.299134905576E+14      0.198546159565E+07      0.433539403958E+05      0.287341500254E-02     -0.131777977539E+00
     1      0.239676753600E+08      0.198900000000E+34      0.600213523080E+12      0.299146325998E+14      0.198553478758E+07     -0.397745745892E+05     -0.264410829772E-02     -0.131782316191E+00
     1      0.245983953600E+08      0.198900000000E+34      0.185163925157E+13      0.298633582536E+14      0.198212893649E+07     -0.122833026147E+06     -0.815694413748E-02     -0.131555725461E+00
     1      0.252291153600E+08      0.198900000000E+34      0.309982165571E+13      0.297597575992E+14      0.197525004527E+07     -0.205675867539E+06     -0.136554303846E-01     -0.131098606079E+00
     1      0.258598353600E+08      0.198900000000E+34      0.434257371093E+13      0.296040124098E+14      0.196491020380E+07     -0.288157932230E+06     -0.191299302797E-01     -0.130411762954E+00
     1      0.264905553600E+08      0.198900000000E+34      0.557771793128E+13      0.293963958313E+14      0.195112756761E+07     -0.370134688401E+06     -0.245708493448E-01     -0.129496403753E+00
     1      0.271212753600E+08      0.198900000000E+34      0.680309018565E+13      0.291372719021E+14      0.193392632593E+07     -0.451462492341E+06     -0.299686522156E-01     -0.128354136770E+00
     1      0.277519953600E+08      0.198900000000E+34      0.801654349051E+13      0.288270949132E+14      0.191333665909E+07     -0.531998840272E+06     -0.353138793705E-01     -0.126986968083E+00
     1      0.283827153600E+08      0.198900000000E+34      0.921595177240E+13      0.284664086109E+14      0.188939468546E+07     -0.611602618167E+06     -0.405971637245E-01     -0.125397298029E+00
     1      0.290134353600E+08      0.198900000000E+34      0.103992135937E+14      0.280558452417E+14      0.186214239797E+07     -0.690134349114E+06     -0.458092470600E-01     -0.123587916968E+00
     1      0.296441553600E+08      0.198900000000E+34      0.115642558352E+14      0.275961244427E+14      0.183162759030E+07     -0.767456437801E+06     -0.509409962650E-01     -0.121562000374E+00
     1      0.302748753600E+08      0.198900000000E+34      0.127090373287E+14      0.270880519785E+14      0.179790377293E+07     -0.843433411692E+06     -0.559834193512E-01     -0.119323103246E+00
     1      0.309055953600E+08      0.198900000000E+34      0.138315524336E+14      0.265325183276E+14      0.176103007912E+07     -0.917932158459E+06     -0.609276812219E-01     -0.116875153851E+00
     1      0.315363153600E+08      0.198900000000E+34      0.149298345511E+14      0.259304971194E+14      0.172107116109E+07     -0.990822159271E+06     -0.657651191636E-01     -0.114222446819E+00
     1      0.321670353600E+08      0.198900000000E+34      0.160019595701E+14      0.252830434268E+14      0.167809707646E+07     -0.106197571751E+07     -0.704872580337E-01     -0.111369635581E+00
     1      0.327977553600E+08      0.198900000000E+34      0.170460492378E+14      0.245912919150E+14      0.163218316526E+07     -0.113126818255E+07     -0.750858251166E-01     -0.108321724193E+00
     1      0.334284753600E+08      0.198900000000E+34      0.180602744503E+14      0.238564548510E+14      0.158340991767E+07     -0.119857816812E+07     -0.795527646238E-01     -0.105084058536E+00
     1      0.340591953600E+08      0.198900000000E+34      0.190428584572E+14      0.230798199779E+14      0.153186283273E+07     -0.126378776501E+07     -0.838802518110E-01     -0.101662316918E+00
     1      0.346899153600E+08      0.198900000000E+34      0.199920799733E+14      0.222627482558E+14      0.147763226825E+07     -0.132678274761E+07     -0.880607066879E-01     -0.980625000920E-01
     1      0.353206353600E+08      0.198900000000E+34      0.209062761943E+14      0.214066714757E+14      0.142081328224E+07     -0.138745277397E+07     -0.920868072974E-01     -0.942909207137E-01
     1      0.359513553600E+08      0.198900000000E+34      0.217838457087E+14      0.205130897481E+14      0.136150546613E+07     -0.144569157910E+07     -0.959515025395E-01     -0.903541922477E-01
     1      0.365820753600E+08      0.198900000000E+34      0.226232513024E+14      0.195835688729E+14      0.129981276995E+07     -0.150139716101E+07     -0.996480245190E-01     -0.862592173485E-01
     1      0.372127953599E+08      0.198900000000E+34      0.234230226509E+14      0.186197375941E+14      0.123584332002E+07     -0.155447195932E+07     -0.103169900394E+00     -0.820131757362E-01
     1      0.378435153599E+08      0.198900000000E+34      0.241817588940E+14      0.176232847436E+14      0.116970922921E+07     -0.160482302612E+07     -0.106510963703E+00     -0.776235115854E-01
     1      0.384742353599E+08      0.198900000000E+34      0.248981310882E+14      0.165959562808E+14      0.110152640026E+07     -0.165236218857E+07     -0.109665365161E+00     -0.730979204534E-01
     1      0.391049553599E+08      0.198900000000E+34      0.255708845337E+14      0.155395522314E+14      0.103141432252E+07     -0.169700620333E+07     -0.112627582883E+00     -0.684443357678E-01
     1      0.397356753599E+08      0.198900000000E+34      0.261988409705E+14      0.144559235323E+14      0.959495862350E+06     -0.173867690210E+07     -0.115392432046E+00     -0.636709148984E-01
     1      0.403663953599E+08      0.198900000000E+34      0.267809006411E+14      0.133469687868E+14      0.885897047627E+06     -0.177730132849E+07     -0.117955073953E+00     -0.587860248390E-01
     1      0.409971153599E+08      0.198900000000E+34      0.273160442145E+14      0.122146309366E+14      0.810746846767E+06     -0.181281186552E+07     -0.120311024483E+00     -0.537982275222E-01
     1      0.416278353599E+08      0.198900000000E+34      0.278033345708E+14      0.110608938565E+14      0.734176942574E+06     -0.184514635392E+07     -0.122456161927E+00     -0.487162647954E-01
     1      0.422585553599E+08      0.198900000000E+34      0.282419184397E+14      0.988777887751E+13      0.656321501353E+06     -0.187424820078E+07     -0.124386734179E+00     -0.435490430825E-01
     1      0.428892753599E+08      0.198900000000E+34      0.286310278935E+14      0.869734124395E+13      0.577316937701E+06     -0.190006647840E+07     -0.126099365288E+00     -0.383056177597E-01
     1      0.435199953599E+08      0.198900000000E+34      0.289699816901E+14      0.749166651202E+13      0.497301675369E+06     -0.192255601329E+07     -0.127591061336E+00     -0.329951772723E-01
     1      0.441507153599E+08      0.198900000000E+34      0.292581864634E+14      0.627286689503E+13      0.416415904628E+06     -0.194167746501E+07     -0.128859215655E+00     -0.276270270206E-01
     1      0.447814353599E+08      0.198900000000E+34      0.294951377606E+14      0.504307756219E+13      0.334801336551E+06     -0.195739739480E+07     -0.129901613363E+00     -0.222105730428E-01
     1      0.454121553599E+08      0.198900000000E+34      0.296804209231E+14      0.380445289739E+13      0.252600954664E+06     -0.196968832389E+07     -0.130716435209E+00     -0.167553055247E-01
     1      0.460428753599E+08      0.198900000000E+34      0.298137118100E+14      0.255916272453E+13      0.169958764381E+06     -0.197852878128E+07     -0.131302260729E+00     -0.112707821638E-01
     1      0.466735953599E+08      0.198900000000E+34      0.298947773637E+14      0.130938850591E+13      0.870195406679E+05     -0.198390334113E+07     -0.131658070696E+00     -0.576661141781E-02
     1      0.473043153599E+08      0.198900000000E+34      0.299234760149E+14      0.573195204967E+11      0.392857439060E+04     -0.198580264939E+07     -0.131783248871E+00     -0.252435667268E-03
     1      0.479350353599E+08      0.198900000000E+34      0.298997579277E+14     -0.119485097130E+13     -0.791685822288E+05     -0.198422343993E+07     -0.131677583050E+00      0.526208567930E-02
     1      0.485657553599E+08      0.198900000000E+34      0.298236650846E+14     -0.244492956968E+13     -0.162126370585E+06     -0.197916853990E+07     -0.131341265398E+00      0.107672931070E-01
     1      0.491964753599E+08      0.198900000000E+34      0.296953312097E+14     -0.369072657752E+13     -0.244799480654E+06     -0.197064686452E+07     -0.130774892075E+00      0.162535439138E-01
     1      0.498271953599E+08      0.198900000000E+34      0.295149815320E+14     -0.493005983575E+13     -0.327043105497E+06     -0.195867340110E+07     -0.129979462159E+00      0.217112290979E-01
     1      0.504579153599E+08      0.198900000000E+34      0.292829323878E+14     -0.616075854534E+13     -0.408713194865E+06     -0.194326918249E+07     -0.128956375859E+00      0.271307901827E-01
     1      0.510886353599E+08      0.198900000000E+34      0.289995906640E+14     -0.738066706920E+13     -0.489666707450E+06     -0.192446124997E+07     -0.127707432029E+00      0.325027359520E-01
     1      0.517193553599E+08      0.198900000000E+34      0.286654530825E+14     -0.858764870732E+13     -0.569761861352E+06     -0.190228260551E+07     -0.126234824982E+00      0.378176590635E-01
     1      0.523500753599E+08      0.198900000000E+34      0.282811053278E+14     -0.977958943855E+13     -0.648858382321E+06     -0.187677215374E+07     -0.124541140614E+00      0.430662525137E-01
     1      0.529807953599E+08      0.198900000000E+34      0.278472210185E+14     -0.109544016225E+14     -0.726817749328E+06     -0.184797463349E+07     -0.122629351844E+00      0.482393259246E-01
     1      0.536115153599E+08      0.198900000000E+34      0.273645605246E+14     -0.121100276550E+14     -0.803503437057E+06     -0.181594053915E+07     -0.120502813373E+00      0.533278216234E-01
     1      0.542422353599E+08      0.198900000000E+34      0.268339696334E+14     -0.132444435709E+14     -0.878781154874E+06     -0.178072603197E+07     -0.118165255783E+00      0.583228304883E-01
     1      0.548729553599E+08      0.198900000000E+34      0.262563780659E+14     -0.143556625874E+14     -0.952519081870E+06     -0.174239284144E+07     -0.115620778971E+00      0.632156075314E-01
     1      0.555036753599E+08      0.198900000000E+34      0.256327978461E+14     -0.154417385831E+14     -0.102458809756E+07     -0.170100815693E+07     -0.112873844946E+00      0.679975871924E-01
     1      0.561343953599E+08      0.198900000000E+34      0.249643215259E+14     -0.165007695040E+14     -0.109486200782E+07     -0.165664450977E+07     -0.109929269986E+00      0.726603983168E-01
     1      0.567651153599E+08      0.198900000000E+34      0.242521202700E+14     -0.175309006940E+14     -0.116321776572E+07     -0.160937964603E+07     -0.106792216182E+00      0.771958787908E-01
     1      0.573958353599E+08      0.198900000000E+34      0.234974418027E+14     -0.185303281411E+14     -0.122953568681E+07     -0.155929639013E+07     -0.103468182379E+00      0.815960898099E-01
     1      0.580265553599E+08      0.198900000000E+34      0.227016082205E+14     -0.194973016350E+14     -0.129369965848E+07     -0.150648249961E+07     -0.999629945204E-01      0.858533297541E-01
     1      0.586572753599E+08      0.198900000000E+34      0.218660136750E+14     -0.204301278307E+14     -0.135559734310E+07     -0.145103051127E+07     -0.962827954367E-01      0.899601476473E-01
     1      0.592879953599E+08      0.198900000000E+34      0.209921219299E+14     -0.213271732118E+14     -0.141512037451E+07     -0.139303757897E+07     -0.924340340670E-01      0.939093561763E-01
     1      0.599187153599E+08      0.198900000000E+34      0.200814637958E+14     -0.221868669500E+14     -0.147216454758E+07     -0.133260530330E+07     -0.884234541559E-01      0.976940442474E-01
     1      0.605494353599E+08      0.198900000000E+34      0.191356344478E+14     -0.230077036532E+14     -0.152663000038E+07     -0.126983955361E+07     -0.842580824332E-01      0.101307589059E+00
     1      0.611801553599E+08      0.198900000000E+34      0.181562906309E+14     -0.237882460004E+14     -0.157842138889E+07     -0.120485028242E+07     -0.799452163005E-01      0.104743667667E+00
     1      0.618108753599E+08      0.198900000000E+34      0.171451477575E+14     -0.245271272565E+14     -0.162744805368E+07     -0.113775133286E+07     -0.754924110473E-01      0.107996268031E+00
     1      0.624415953599E+08      0.198900000000E+34      0.161039769022E+14     -0.252230536634E+14     -0.167362417839E+07     -0.106866023918E+07     -0.709074666170E-01      0.111059699506E+00
     1      0.630723153599E+08      0.198900000000E+34      0.150346016997E+14     -0.258748067040E+14     -0.171686893981E+07     -0.997698020929E+06     -0.661984139468E-01      0.113928602779E+00
     1      0.637030353599E+08      0.198900000000E+34      0.139388951500E+14     -0.264812452336E+14     -0.175710664909E+07     -0.924988970947E+06     -0.613735009064E-01      0.116597959226E+00
     1      0.643337553599E+08      0.198900000000E+34      0.128187763384E+14     -0.270413074763E+14     -0.179426688411E+07     -0.850660437736E+06     -0.564411778579E-01      0.119063099666E+00
     1      0.649644753599E+08      0.198900000000E+34      0.116762070743E+14     -0.275540128821E+14     -0.182828461249E+07     -0.774842602436E+06     -0.514100828643E-01      0.121319712515E+00
     1      0.655951953599E+08      0.198900000000E+34      0.105131884551E+14     -0.280184638419E+14     -0.185910030526E+07     -0.697668250884E+06     -0.462890265709E-01      0.123363851299E+00
     1      0.662259153599E+08      0.198900000000E+34      0.933175736232E+13     -0.284338472574E+14     -0.188666004085E+07     -0.619272541128E+06     -0.410869767868E-01      0.125191941546E+00
     1      0.668566353599E+08      0.198900000000E+34      0.813398289426E+13     -0.287994359629E+14     -0.191091559930E+07     -0.539792766795E+06     -0.358130427931E-01      0.126800787015E+00
     1      0.674873553599E+08      0.198900000000E+34      0.692196274301E+13     -0.291145899966E+14     -0.193182454644E+07     -0.459368116747E+06     -0.304764594051E-01      0.128187575269E+00
     1      0.681180753599E+08      0.198900000000E+34      0.569781952131E+13     -0.293787577194E+14     -0.194935030806E+07     -0.378139431423E+06     -0.250865708164E-01      0.129349882577E+00
     1      0.687487953599E+08      0.198900000000E+34      0.446369704591E+13     -0.295914767788E+14     -0.196346223367E+07     -0.296248956312E+06     -0.196528142537E-01      0.130285678137E+00
     1      0.693795153599E+08      0.198900000000E+34      0.322175658390E+13     -0.297523749172E+14     -0.197413565003E+07     -0.213840092970E+06     -0.141847034684E-01      0.130993327613E+00
     1      0.700102353599E+08      0.198900000000E+34      0.197417306869E+13     -0.298611706216E+14     -0.198135190417E+07     -0.131057148030E+06     -0.869181209799E-02      0.131471595974E+00
     1      0.706409553599E+08      0.198900000000E+34      0.723131292039E+12     -0.299176736151E+14     -0.198509839588E+07     -0.480450806369E+05     -0.318375692116E-02      0.131719649649E+00
     1      0.712716753599E+08      0.198900000000E+34     -0.529177920937E+12     -0.299217851884E+14     -0.198536859965E+07      0.350507512488E+05      0.232981895979E-02      0.131737057962E+00
     1      0.719023953599E+08      0.198900000000E+34     -0.178056154735E+13     -0.298734983714E+14     -0.198216207590E+07      0.118084845242E+06      0.783926298289E-02      0.131523793884E+00
     1      0.725331153599E+08      0.198900000000E+34     -0.302882820585E+13     -0.297728979438E+14     -0.197548447168E+07      0.200911809166E+06      0.133349300059E-01      0.131080234061E+00
     1      0.731638353599E+08      0.198900000000E+34     -0.427179199292E+13     -0.296201602855E+14     -0.196534751067E+07      0.283386615484E+06      0.188071991727E-01      0.130407158153E+00
     1      0.737945553599E+08      0.198900000000E+34     -0.550727630967E+13     -0.294155530668E+14     -0.195176897251E+07      0.365364855099E+06      0.242464907362E-01      0.129505747457E+00
     1      0.744252753599E+08      0.198900000000E+34     -0.673311767209E+13     -0.291594347779E+14     -0.193477266165E+07      0.446702990047E+06      0.296432828099E-01      0.128377582837E+00
     1      0.750559953599E+08      0.198900000000E+34     -0.794716949847E+13     -0.288522541011E+14     -0.191438836554E+07      0.527258604689E+06      0.349881280181E-01      0.127024641955E+00
     1      0.756867153599E+08      0.198900000000E+34     -0.914730586706E+13     -0.284945491236E+14     -0.189065180246E+07      0.606890654910E+06      0.402716700150E-01      0.125449295805E+00
     1      0.763174353599E+08      0.198900000000E+34     -0.103314252376E+14     -0.280869463947E+14     -0.186360455896E+07      0.685459714939E+06      0.454846598463E-01      0.123654304561E+00
     1      0.769481553599E+08      0.198900000000E+34     -0.114974541301E+14     -0.276301598282E+14     -0.183329401694E+07      0.762828221323E+06      0.506179721219E-01      0.121642812755E+00
     1      0.775788753599E+08      0.198900000000E+34     -0.126433507544E+14     -0.271249894515E+14     -0.179977327076E+07      0.838860713647E+06      0.556626209738E-01      0.119418343767E+00
     1      0.782095953599E+08      0.198900000000E+34     -0.137671085847E+14     -0.265723200044E+14     -0.176310103420E+07      0.913424071577E+06      0.606097757705E-01      0.116984793667E+00
     1      0.788403153599E+08      0.198900000000E+34     -0.148667598713E+14     -0.259731193895E+14     -0.172334153773E+07      0.986387747811E+06      0.654507765600E-01      0.114346424402E+00
     1      0.794710353599E+08      0.198900000000E+34     -0.159403790858E+14     -0.253284369769E+14     -0.168056441603E+07      0.105762399652E+07      0.701771492157E-01      0.111507856342E+00
     1      0.801017553599E+08      0.198900000000E+34     -0.169860862913E+14     -0.246394017668E+14     -0.163484458610E+07      0.112700809692E+07      0.747806202580E-01      0.108474060199E+00
     1      0.807324753599E+08      0.198900000000E+34     -0.180020504334E+14     -0.239072204122E+14     -0.158626211614E+07      0.119441857149E+07      0.792531313256E-01      0.105250348340E+00
     1      0.813631953599E+08      0.198900000000E+34     -0.189864925455E+14     -0.231331751064E+14     -0.153490208542E+07      0.125973739862E+07      0.835868532716E-01      0.101842365497E+00
     1      0.819939153599E+08      0.198900000000E+34     -0.199376888626E+14     -0.223186213372E+14     -0.148085443531E+07      0.132285021910E+07      0.877741998607E-01      0.982560788950E-01
     1      0.826246353599E+08      0.198900000000E+34     -0.208539738391E+14     -0.214649855141E+14     -0.142421381194E+07      0.138364653633E+07      0.918078410409E-01      0.944977678226E-01
     1      0.832553553599E+08      0.198900000000E+34     -0.217337430643E+14     -0.205737624706E+14     -0.136507940052E+07      0.144201990965E+07      0.956807157699E-01      0.905740126515E-01
     1      0.838860753599E+08      0.198900000000E+34     -0.225754560707E+14     -0.196465128467E+14     -0.130355475173E+07      0.149786814067E+07      0.993860443714E-01      0.864916833312E-01
     1      0.845167953599E+08      0.198900000000E+34     -0.233776390312E+14     -0.186848603568E+14     -0.123974760053E+07      0.155109345216E+07      0.102917340400E+00      0.822579273767E-01
     1      0.851475153599E+08      0.198900000000E+34     -0.241388873387E+14     -0.176904889465E+14     -0.117376967757E+07      0.160160265916E+07      0.106268421996E+00      0.778801573705E-01
     1      0.857782353599E+08      0.198900000000E+34     -0.248578680650E+14     -0.166651398445E+14     -0.110573651367E+07      0.164930733218E+07      0.109433422706E+00      0.733660380003E-01
     1      0.864089553599E+08      0.198900000000E+34     -0.255333222947E+14     -0.156106085140E+14     -0.103576723762E+07      0.169412395190E+07      0.112406801757E+00      0.687234726558E-01
     1      0.870396753599E+08      0.198900000000E+34     -0.261640673285E+14     -0.145287415091E+14     -0.963984367655E+06      0.173597405550E+07      0.115183353754E+00      0.639605896066E-01
     1      0.876703953599E+08      0.198900000000E+34     -0.267489987540E+14     -0.134214332418E+14     -0.890513597030E+06      0.177478437394E+07      0.117758217804E+00      0.590857277858E-01
     1      0.883011153599E+08      0.198900000000E+34     -0.272870923795E+14     -0.122906226654E+14     -0.815483574031E+06      0.181048696032E+07      0.120126886027E+00      0.541074222053E-01
     1      0.889318353599E+08      0.198900000000E+34     -0.277774060264E+14     -0.111382898796E+14     -0.739025676791E+06      0.184301930881E+07      0.122285211459E+00      0.490343890255E-01
     1      0.895625553599E+08      0.198900000000E+34     -0.282190811794E+14     -0.996645266382E+13     -0.661273783328E+06      0.187232446416E+07      0.124229415314E+00      0.438755103083E-01
     1      0.901932753598E+08      0.198900000000E+34     -0.286113444889E+14     -0.877716294406E+13     -0.582364037209E+06      0.189835112141E+07      0.125956093616E+00      0.386398184781E-01
     1      0.908239953598E+08      0.198900000000E+34     -0.289535091258E+14     -0.757250320071E+13     -0.502434609228E+06      0.192105371582E+07      0.127462223167E+00      0.333364805182E-01
     1      0.914547153598E+08      0.198900000000E+34     -0.292449759833E+14     -0.635458282215E+13     -0.421625455539E+06      0.194039250260E+07      0.128745166850E+00      0.279747819307E-01
     1      0.920854353598E+08      0.198900000000E+34     -0.294852347264E+14     -0.512553441156E+13     -0.340078072653E+06      0.195633362667E+07      0.129802678259E+00      0.225641104880E-01
     1      0.927161553598E+08      0.198900000000E+34     -0.296738646853E+14     -0.388751005291E+13     -0.257935249722E+06      0.196884918187E+07      0.130632905648E+00      0.171139398030E-01
     1      0.933468753598E+08      0.198900000000E+34     -0.298105355919E+14     -0.264267754287E+13     -0.175340818565E+06      0.197791725998E+07      0.131234395182E+00      0.116338127482E-01
     1      0.939775953598E+08      0.198900000000E+34     -0.298950081584E+14     -0.139321659517E+13     -0.924394018477E+05      0.198352198911E+07      0.131606093501E+00      0.613332475175E-02
     1      0.946083153598E+08      0.198900000000E+34     -0.299271344961E+14     -0.141315023976E+12     -0.937615987258E+04      0.198565356153E+07      0.131747349580E+00      0.622107000159E-03
     1      0.952390353598E+08      0.198900000000E+34     -0.299068583747E+14      0.111083508686E+13      0.737034635789E+05      0.198430825095E+07      0.131657915879E+00     -0.489019042353E-02
     1      0.958697553598E+08      0.198900000000E+34     -0.298342153204E+14      0.236104122213E+13      0.156653995915E+06      0.197948841909E+07      0.131337948796E+00     -0.103939154359E-01
     1      0.965004753598E+08      0.198900000000E+34     -0.297093325542E+14      0.360711427439E+13      0.239330190458E+06      0.197120251165E+07      0.130788008405E+00     -0.158794308548E-01
     1      0.971311953598E+08      0.198900000000E+34     -0.295324287692E+14      0.484687237714E+13      0.321587280788E+06      0.195946504353E+07      0.130009057495E+00     -0.213371312760E-01
     1      0.977619153598E+08      0.198900000000E+34     -0.293038137474E+14      0.607814472539E+13      0.403281234249E+06      0.194429657353E+07      0.129002459892E+00     -0.267574598964E-01
     1      0.983926353598E+08      0.198900000000E+34     -0.290238878175E+14      0.729877537687E+13      0.484269004181E+06      0.192572366839E+07      0.127769978094E+00     -0.321309252531E-01
     1      0.990233553598E+08      0.198900000000E+34     -0.286931411540E+14      0.850662702730E+13      0.564408780440E+06      0.190377885636E+07      0.126313770190E+00     -0.374481178500E-01
     1      0.996540753598E+08      0.198900000000E+34     -0.283121529188E+14      0.969958475298E+13      0.643560237752E+06      0.187850057025E+07      0.124636386101E+00     -0.426997266423E-01
     1      0.100284795360E+09      0.198900000000E+34     -0.278815902473E+14      0.108755597143E+14      0.721584781485E+06      0.184993308022E+07      0.122740763121E+00     -0.478765553495E-01
     1      0.100915515360E+09      0.198900000000E+34     -0.274022070798E+14      0.120324928137E+14      0.798345790388E+06      0.181812641632E+07      0.120630220792E+00     -0.529695385695E-01
     1      0.101546235360E+09      0.198900000000E+34     -0.268748428413E+14      0.131683583012E+14      0.873708855888E+06      0.178313628086E+07      0.118308455096E+00     -0.579697576641E-01
     1      0.102176955360E+09      0.198900000000E+34     -0.263004209717E+14      0.142811673221E+14      0.947542017518E+06      0.174502395096E+07      0.115779531993E+00     -0.628684563888E-01
     1      0.102807675360E+09      0.198900000000E+34     -0.256799473086E+14      0.153689713995E+14      0.101971599406E+07      0.170385617126E+07      0.113047880312E+00     -0.676570562397E-01
     1      0.103438395360E+09      0.198900000000E+34     -0.250145083256E+14      0.164298658467E+14      0.109010441001E+07      0.165970503705E+07      0.110118283999E+00     -0.723271714890E-01
     1      0.104069115360E+09      0.198900000000E+34     -0.243052692298E+14      0.174619931026E+14      0.115858401693E+07      0.161264786801E+07      0.106995873747E+00     -0.768706238847E-01
     1      0.104699835360E+09      0.198900000000E+34     -0.235534719210E+14      0.184635459846E+14      0.122503490939E+07      0.156276707287E+07      0.103686118013E+00     -0.812794569873E-01
     1      0.105330555360E+09      0.198900000000E+34     -0.227604328167E+14      0.194327708533E+14      0.128934073497E+07      0.151015000502E+07      0.100194813447E+00     -0.855459501180E-01
     1      0.105961275360E+09      0.198900000000E+34     -0.219275405465E+14      0.203679706833E+14      0.135138889812E+07      0.145488880959E+07      0.965280747384E-01     -0.896626318951E-01
     1      0.106591995360E+09      0.198900000000E+34     -0.210562535203E+14      0.212675080354E+14      0.141107075737E+07      0.139708026201E+07      0.926923239103E-01     -0.936222933337E-01
     1      0.107222715360E+09      0.198900000000E+34     -0.201480973736E+14      0.221298079237E+14      0.146828181573E+07      0.133682559852E+07      0.886942790690E-01     -0.974180004859E-01
     1      0.107853435360E+09      0.198900000000E+34     -0.192046622958E+14      0.229533605737E+14      0.152292190366E+07      0.127423033885E+07      0.845409426357E-01     -0.101043106599E+00
     1      0.108484155360E+09      0.198900000000E+34     -0.182276002448E+14      0.237367240659E+14      0.157489535460E+07      0.120940410137E+07      0.802395890782E-01     -0.104491263772E+00
     1      0.109114875360E+09      0.198900000000E+34     -0.172186220539E+14      0.244785268614E+14      0.162411117258E+07      0.114246041105E+07      0.757977521640E-01     -0.107756434085E+00
     1      0.109745595360E+09      0.198900000000E+34     -0.161794944348E+14      0.251774702027E+14      0.167048319158E+07      0.107351650060E+07      0.712232117590E-01     -0.110832900189E+00
     1      0.110376315360E+09      0.198900000000E+34     -0.151120368840E+14      0.258323303884E+14      0.171393022651E+07      0.100269310509E+07      0.665239801921E-01     -0.113715275331E+00
     1      0.111007035360E+09      0.198900000000E+34     -0.140181184950E+14      0.264419609156E+14      0.175437621540E+07      0.930114250427E+06      0.617082882124E-01     -0.116398512800E+00
     1      0.111637755360E+09      0.198900000000E+34     -0.128996546854E+14      0.270052944873E+14      0.179175035265E+07      0.855907036035E+06      0.567845705621E-01     -0.118877914779E+00
     1      0.112268475360E+09      0.198900000000E+34     -0.117586038415E+14      0.275213448813E+14      0.182598721306E+07      0.780201412210E+06      0.517614511907E-01     -0.121149140577E+00
     1      0.112899195360E+09      0.198900000000E+34     -0.105969638883E+14      0.279892086765E+14      0.185702686639E+07      0.703129952422E+06      0.466477281367E-01     -0.123208214246E+00
     1      0.113529915360E+09      0.198900000000E+34     -0.941676879032E+13      0.284080668343E+14      0.188481498232E+07      0.624827621035E+06      0.414523581038E-01     -0.125051531547E+00
     1      0.114160635360E+09      0.198900000000E+34     -0.822008498880E+13      0.287771861326E+14      0.190930292561E+07      0.545431536839E+06      0.361844407574E-01     -0.126675866271E+00
     1      0.114791355360E+09      0.198900000000E+34     -0.700900778250E+13      0.290959204490E+14      0.193044784123E+07      0.465080732798E+06      0.308532027706E-01     -0.128078375894E+00
     1      0.115422075360E+09      0.198900000000E+34     -0.578565765781E+13      0.293637118912E+14      0.194821272940E+07      0.383915912452E+06      0.254679816469E-01     -0.129256606554E+00
     1      0.116052795360E+09      0.198900000000E+34     -0.455217657475E+13      0.295800917735E+14      0.196256651032E+07      0.302079203383E+06      0.200382093477E-01     -0.130208497353E+00
     1      0.116683515360E+09      0.198900000000E+34     -0.331072421544E+13      0.297446814364E+14      0.197348407855E+07      0.219713908194E+06      0.145733957550E-01     -0.130932383965E+00
     1      0.117314235360E+09      0.198900000000E+34     -0.206347420159E+13      0.298571929087E+14      0.198094634690E+07      0.136964253429E+06      0.908311199652E-02     -0.131427001550E+00
     1      0.117944955360E+09      0.198900000000E+34     -0.812610287537E+12      0.299174294106E+14      0.198494027980E+07      0.539751368746E+05      0.357697366364E-02     -0.131691486961E+00
     1      0.118575675360E+09      0.198900000000E+34      0.439677464289E+12      0.299252856971E+14      0.198545891600E+07     -0.291081263090E+05     -0.193537604811E-02     -0.131725380251E+00
     1      0.119206395360E+09      0.198900000000E+34      0.169119651896E+13      0.298807482413E+14      0.198250138067E+07     -0.112140058180E+06     -0.744428324702E-02     -0.131528625471E+00
     1      0.119837115360E+09      0.198900000000E+34      0.293975570889E+13      0.297838952563E+14      0.197607288681E+07     -0.194975272894E+06     -0.129401002713E-01     -0.131101570760E+00
     1      0.120467835360E+09      0.198900000000E+34      0.418316907117E+13      0.296348965572E+14      0.196618472598E+07     -0.277468731405E+06     -0.184132026037E-01     -0.130444967718E+00
     1      0.121098555360E+09      0.198900000000E+34      0.541925967573E+13      0.294340132618E+14      0.195285424840E+07     -0.359475995562E+06     -0.238540057451E-01     -0.129559970081E+00
     1      0.121729275360E+09      0.198900000000E+34      0.664586343759E+13      0.291815973322E+14      0.193610483239E+07     -0.440853481133E+06     -0.292529820168E-01     -0.128448131683E+00
     1      0.122359995360E+09      0.198900000000E+34      0.786083290651E+13      0.288780909569E+14      0.191596584326E+07     -0.521458709333E+06     -0.346006772623E-01     -0.127111403719E+00
     1      0.122990715360E+09      0.198900000000E+34      0.906204102736E+13      0.285240257741E+14      0.189247258172E+07     -0.601150556398E+06     -0.398877274190E-01     -0.125552131306E+00
     1      0.123621435360E+09      0.198900000000E+34      0.102473848647E+14      0.281200219398E+14      0.186566622188E+07     -0.679789500779E+06     -0.451048749314E-01     -0.123773049359E+00
     1      0.124252155360E+09      0.198900000000E+34      0.114147892850E+14      0.276667870398E+14      0.183559373892E+07     -0.757237867507E+06     -0.502429849753E-01     -0.121777277779E+00
     1      0.124882875360E+09      0.198900000000E+34      0.125622105902E+14      0.271651148485E+14      0.180230782664E+07     -0.833360069325E+06     -0.552930614661E-01     -0.119568315964E+00
     1      0.125513595360E+09      0.198900000000E+34      0.136876400954E+14      0.266158839376E+14      0.176586680500E+07     -0.908022844136E+06     -0.602462628221E-01     -0.117150036658E+00
     1      0.126144315360E+09      0.198900000000E+34      0.147891076464E+14      0.260200561355E+14      0.172633451771E+07     -0.981095488368E+06     -0.650939174556E-01     -0.114526679146E+00
     1      0.126775035360E+09      0.198900000000E+34      0.158646850683E+14      0.253786748413E+14      0.168378022027E+07     -0.105245008584E+07     -0.698275389637E-01     -0.111702841796E+00
     1      0.127405755360E+09      0.198900000000E+34      0.169124895410E+14      0.246928631959E+14      0.163827845842E+07     -0.112196173175E+07     -0.744388409938E-01     -0.108683473989E+00
     1      0.128036475360E+09      0.198900000000E+34      0.179306868956E+14      0.239638221131E+14      0.158990893741E+07     -0.118950875132E+07     -0.789197517553E-01     -0.105473867415E+00
     1      0.128667195360E+09      0.198900000000E+34      0.189174948243E+14      0.231928281755E+14      0.153875638217E+07     -0.125497291283E+07     -0.832624281547E-01     -0.102079646782E+00
     1      0.129297915360E+09      0.198900000000E+34      0.198711860009E+14      0.223812313970E+14      0.148491038870E+07     -0.131823963455E+07     -0.874592695267E-01     -0.985067599389E-01
     1      0.129928635360E+09      0.198900000000E+34      0.207900911031E+14      0.215304528570E+14      0.142846526702E+07     -0.137919818533E+07     -0.915029309397E-01     -0.947614674273E-01
     1      0.130559355360E+09      0.198900000000E+34      0.216726017347E+14      0.206419822106E+14      0.136951987570E+07     -0.143774187833E+07     -0.953863360497E-01     -0.908503314914E-01
     1      0.131190075360E+09      0.198900000000E+34      0.225171732398E+14      0.197173750784E+14      0.130817744860E+07     -0.149376825775E+07     -0.991026894831E-01     -0.867802045580E-01
     1      0.131820795360E+09      0.198900000000E+34      0.233223274062E+14      0.187582503210E+14      0.124454541387E+07     -0.154717927807E+07     -0.102645488724E+00     -0.825582172084E-01
     1      0.132451515360E+09      0.198900000000E+34      0.240866550512E+14      0.177662872027E+14      0.117873520560E+07     -0.159788147556E+07     -0.106008535487E+00     -0.781917656646E-01
     1      0.133082235360E+09      0.198900000000E+34      0.248088184876E+14      0.167432224503E+14      0.111086206850E+07     -0.164578613179E+07     -0.109185946555E+00     -0.736884988105E-01
     1      0.133712955360E+09      0.198900000000E+34      0.254875538636E+14      0.156908472099E+14      0.104104485594E+07     -0.169080942875E+07     -0.112172164062E+00     -0.690563047723E-01
     1      0.134343675360E+09      0.198900000000E+34      0.261216733733E+14      0.146110039105E+14      0.969405821622E+06     -0.173287259540E+07     -0.114961965205E+00     -0.643032970807E-01
     1      0.134974395360E+09      0.198900000000E+34      0.267100673346E+14      0.135055830358E+14      0.896070405339E+06     -0.177190204540E+07     -0.117550471370E+00     -0.594378004403E-01
     1      0.135605115360E+09      0.198900000000E+34      0.272517061292E+14      0.123765198140E+14      0.821167013192E+06     -0.180782950572E+07     -0.119933156644E+00     -0.544683361301E-01
     1      0.136235835360E+09      0.198900000000E+34      0.277456420033E+14      0.112257908280E+14      0.744826792596E+06     -0.184059213589E+07     -0.122105855723E+00     -0.494036070619E-01
     1      0.136866555360E+09      0.198900000000E+34      0.281910107242E+14      0.100554105539E+14      0.667183402523E+06     -0.187013263781E+07     -0.124064771168E+00     -0.442524825226E-01
     1      0.137497275360E+09      0.198900000000E+34      0.285870330909E+14      0.886742783363E+13      0.588372779353E+06     -0.189639935576E+07     -0.125806480032E+00     -0.390239826267E-01
     1      0.138127995360E+09      0.198900000000E+34      0.289330162953E+14      0.766392228667E+13      0.508532898763E+06     -0.191934636661E+07     -0.127327939822E+00     -0.337272625072E-01
     1      0.138758715360E+09      0.198900000000E+34      0.292283551332E+14      0.644700066909E+13      0.427803534066E+06     -0.193893355989E+07     -0.128626493791E+00     -0.283715962719E-01
     1      0.139389435360E+09      0.198900000000E+34      0.294725330602E+14      0.521879318458E+13      0.346326011416E+06     -0.195512670774E+07     -0.129699875559E+00     -0.229663607545E-01
     1      0.140020155360E+09      0.198900000000E+34      0.296651230940E+14      0.398144975489E+13      0.264242962323E+06     -0.196789752451E+07     -0.130546213051E+00     -0.175210190872E-01
     1      0.140650875360E+09      0.198900000000E+34      0.298057885584E+14      0.273713625589E+13      0.181698073898E+06     -0.197722371602E+07     -0.131164031732E+00     -0.120451041253E-01
     1      0.141281595360E+09      0.198900000000E+34      0.298942836706E+14      0.148803072588E+13      0.988358372765E+05     -0.198308901821E+07     -0.131552257162E+00     -0.654820175231E-02
     1      0.141912315360E+09      0.198900000000E+34      0.299304539679E+14      0.236319552820E+12      0.158012946502E+05     -0.198548322536E+07     -0.131710216837E+00     -0.103993409448E-02
     1      0.142543035360E+09      0.198900000000E+34      0.299142365759E+14     -0.101580635285E+13     -0.672602146354E+05     -0.198440220761E+07     -0.131637641330E+00      0.447005732528E-02
     1      0.143173755360E+09      0.198900000000E+34      0.298456603155E+14     -0.226615539312E+13     -0.150203308488E+06     -0.197984791789E+07     -0.131334664731E+00      0.997212846486E-02
     1      0.143804475360E+09      0.198900000000E+34      0.297248456494E+14     -0.351253911837E+13     -0.232882816523E+06     -0.197182838817E+07     -0.130801824375E+00      0.154566496421E-01
     1      0.144435195360E+09      0.198900000000E+34      0.295520044689E+14     -0.475277605751E+13     -0.315154034132E+06     -0.196035771511E+07     -0.130040059862E+00      0.209140223865E-01
     1      0.145065915360E+09      0.198900000000E+34      0.293274397199E+14     -0.598469553582E+13     -0.396872975701E+06     -0.194545603505E+07     -0.129050711384E+00      0.263346962329E-01
     1      0.145696635360E+09      0.198900000000E+34      0.290515448702E+14     -0.720614147365E+13     -0.477896626564E+06     -0.192714948850E+07     -0.127835517339E+00      0.317091854296E-01
     1      0.146327355360E+09      0.198900000000E+34      0.287248032178E+14     -0.841497615939E+13     -0.558083193224E+06     -0.190547017405E+07     -0.126396611260E+00      0.370280855299E-01
     1      0.146958075360E+09      0.198900000000E+34      0.283477870428E+14     -0.960908399008E+13     -0.637292351420E+06     -0.188045609192E+07     -0.124736518041E+00      0.422820898393E-01
     1      0.147588795360E+09      0.198900000000E+34      0.279211566028E+14     -0.107863751732E+14     -0.715385491600E+06     -0.185215107714E+07     -0.122858149493E+00      0.474620056887E-01
     1      0.148219515360E+09      0.198900000000E+34      0.274456589751E+14     -0.119447893831E+14     -0.792225961376E+06     -0.182060472259E+07     -0.120764799211E+00      0.525587705065E-01
     1      0.148850235360E+09      0.198900000000E+34      0.269221267464E+14     -0.130822993655E+14     -0.867679304535E+06     -0.178587229191E+07     -0.118460136786E+00      0.575634676605E-01
     1      0.149480955360E+09      0.198900000000E+34      0.263514765537E+14     -0.141969144844E+14     -0.941613496181E+06     -0.174801462255E+07     -0.115948201350E+00      0.624673420416E-01
     1      0.150111675360E+09      0.198900000000E+34      0.257347074776E+14     -0.152866842042E+14     -0.101389917362E+07     -0.170709801903E+07     -0.113233394482E+00      0.672618153643E-01
     1      0.150742395361E+09      0.198900000000E+34      0.250728992917E+14     -0.163497015018E+14     -0.108440986254E+07     -0.166319413669E+07     -0.110320472484E+00      0.719385011548E-01
     1      0.151373115361E+09      0.198900000000E+34      0.243672105707E+14     -0.173841062025E+14     -0.115302219817E+07     -0.161637985607E+07     -0.107214538029E+00      0.764892194021E-01
     1      0.152003835361E+09      0.198900000000E+34      0.236188766611E+14     -0.183880882335E+14     -0.121961614094E+07     -0.156673714818E+07     -0.103921031216E+00      0.809060108463E-01
     1      0.152634555361E+09      0.198900000000E+34      0.228292075174E+14     -0.193598907897E+14     -0.128407518631E+07     -0.151435293083E+07     -0.100445720026E+00      0.851811508798E-01
     1      0.153265275361E+09      0.198900000000E+34      0.219995854078E+14     -0.202978134064E+14     -0.134628656845E+07     -0.145931891639E+07     -0.967946902158E-01      0.893071630355E-01
     1      0.153895995361E+09      0.198900000000E+34      0.211314624940E+14     -0.212002149329E+14     -0.140614145730E+07     -0.140173145113E+07     -0.929743346504E-01      0.932768320408E-01
     1      0.154526715361E+09      0.198900000000E+34      0.202263582881E+14     -0.220655164026E+14     -0.146353514879E+07     -0.134169134648E+07     -0.889913421066E-01      0.970832164135E-01
     1      0.155157435361E+09      0.198900000000E+34      0.192858569924E+14     -0.228922037939E+14     -0.151836724780E+07     -0.127930370252E+07     -0.848526855570E-01      0.100719660578E+00
     1      0.155788155361E+09      0.198900000000E+34      0.183116047260E+14     -0.236788306776E+14     -0.157054184358E+07     -0.121467772394E+07     -0.805656099606E-01      0.104179806480E+00
     1      0.156418875361E+09      0.198900000000E+34      0.173053066431E+14     -0.244240207459E+14     -0.161996767736E+07     -0.114792652889E+07     -0.761376195798E-01      0.107457604682E+00
     1      0.157049595361E+09      0.198900000000E+34      0.162687239482E+14     -0.251264702185E+14     -0.166655830173E+07     -0.107916695095E+07     -0.715764648462E-01      0.110547324918E+00
     1      0.157680315361E+09      0.198900000000E+34      0.152036708136E+14     -0.257849501219E+14     -0.171023223167E+07     -0.100851933463E+07     -0.668901287975E-01      0.113443566086E+00
     1      0.158311035361E+09      0.198900000000E+34      0.141120112038E+14     -0.263983084379E+14     -0.175091308689E+07     -0.936107324819E+06     -0.620868131106E-01      0.116141265674E+00
     1      0.158941755361E+09      0.198900000000E+34      0.129956556138E+14     -0.269654721171E+14     -0.178852972523E+07     -0.862057650341E+06     -0.571749237534E-01      0.118635708585E+00
     1      0.159572475361E+09      0.198900000000E+34      0.118565577254E+14     -0.274854489545E+14     -0.182301636687E+07     -0.786499902261E+06     -0.521630562826E-01      0.120922535357E+00
     1      0.160203195361E+09      0.198900000000E+34      0.106967109884E+14     -0.279573293236E+14     -0.185431270918E+07     -0.709566307130E+06     -0.470599808105E-01      0.122997749767E+00
     1      0.160833915361E+09      0.198900000000E+34      0.951814513228E+13     -0.283802877659E+14     -0.188236403206E+07     -0.631391495658E+06     -0.418746266697E-01      0.124857725792E+00
     1      0.161464635361E+09      0.198900000000E+34      0.832292261466E+13     -0.287535844331E+14     -0.190712129338E+07     -0.552112267196E+06     -0.366160668005E-01      0.126499213930E+00
     1      0.162095355361E+09      0.198900000000E+34      0.711313501258E+13     -0.290765663799E+14     -0.192854121459E+07     -0.471867350434E+06     -0.312935018890E-01      0.127919346860E+00
     1      0.162726075361E+09      0.198900000000E+34      0.589089936290E+13     -0.293486687043E+14     -0.194658635629E+07     -0.390797160747E+06     -0.259162442837E-01      0.129115644435E+00
     1      0.163356795361E+09      0.198900000000E+34      0.465835445834E+13     -0.295694155345E+14     -0.196122518343E+07     -0.309043554597E+06     -0.204937017176E-01      0.130086018002E+00
     1      0.163987515361E+09      0.198900000000E+34      0.341765710563E+13     -0.297384208594E+14     -0.197243212041E+07     -0.226749581431E+06     -0.150353608658E-01      0.130828774035E+00
     1      0.164618235361E+09      0.198900000000E+34      0.217097835212E+13     -0.298553892026E+14     -0.198018759556E+07     -0.144059233498E+06     -0.955077076548E-02      0.131342617078E+00
     1      0.165248955361E+09      0.198900000000E+34      0.920499687712E+12     -0.299201161372E+14     -0.198447807528E+07     -0.611171940353E+05     -0.404952612836E-02      0.131626652001E+00
     1      0.165879675361E+09      0.198900000000E+34     -0.331590771421E+12     -0.299324886426E+14     -0.198529608752E+07      0.219314157511E+05      0.145874942589E-02      0.131680385542E+00
     1      0.166510395361E+09      0.198900000000E+34     -0.158310211065E+13     -0.298924853003E+14     -0.198264023475E+07      0.104941290460E+06      0.696442018613E-02      0.131503727169E+00
     1      0.167141115361E+09      0.198900000000E+34     -0.283184444947E+13     -0.298001763304E+14     -0.197651519625E+07      0.187767194584E+06      0.124578551866E-01      0.131096989217E+00
     1      0.167771835361E+09      0.198900000000E+34     -0.407563277225E+13     -0.296557234668E+14     -0.196693171986E+07      0.270264216474E+06      0.179294450349E-01      0.130460886341E+00
     1      0.168402555361E+09      0.198900000000E+34     -0.531229075032E+13     -0.294593796737E+14     -0.195390660300E+07      0.352288021724E+06      0.233696187023E-01      0.129596534252E+00
     1      0.169033275361E+09      0.198900000000E+34     -0.653965454889E+13     -0.292114887015E+14     -0.193746266327E+07      0.433695105550E+06      0.287688602466E-01      0.128505447767E+00
     1      0.169663995361E+09      0.198900000000E+34     -0.775557661204E+13     -0.289124844847E+14     -0.191762869844E+07      0.514343043714E+06      0.341177254382E-01      0.127189538152E+00
     1      0.170294715361E+09      0.198900000000E+34     -0.895792941915E+13     -0.285628903813E+14     -0.189443943596E+07      0.594090741551E+06      0.394068582620E-01      0.125651109776E+00
     1      0.170925435361E+09      0.198900000000E+34     -0.101446092063E+14     -0.281633182566E+14     -0.186793547226E+07      0.672798680676E+06      0.446270072641E-01      0.123892856084E+00
     1      0.171556155361E+09      0.198900000000E+34     -0.113135396459E+14     -0.277144674122E+14     -0.183816320159E+07      0.750329162931E+06      0.497690417169E-01      0.121917854886E+00
     1      0.172186875361E+09      0.198900000000E+34     -0.124626754788E+14     -0.272171233613E+14     -0.180517473492E+07      0.826546551153E+06      0.548239675735E-01      0.119729562977E+00
     1      0.172817595362E+09      0.198900000000E+34     -0.135900060914E+14     -0.266721564544E+14     -0.176902780869E+07      0.901317506333E+06      0.597829431836E-01      0.117331810094E+00
     1      0.173448315362E+09      0.198900000000E+34     -0.146935590326E+14     -0.260805203557E+14     -0.172978568388E+07      0.974511220767E+06      0.646372947441E-01      0.114728792226E+00
     1      0.174079035362E+09      0.198900000000E+34     -0.157714034636E+14     -0.254432503744E+14     -0.168751703529E+07      0.104599964678E+07      0.693785314563E-01      0.111925064280E+00
     1      0.174709755362E+09      0.198900000000E+34     -0.168216535355E+14     -0.247614616530E+14     -0.164229583148E+07      0.111565772063E+07      0.739983603654E-01      0.108925532125E+00
     1      0.175340475362E+09      0.198900000000E+34     -0.178424716877E+14     -0.240363472161E+14     -0.159420120532E+07      0.118336358118E+07      0.784887008543E-01      0.105735444018E+00
     1      0.175971195362E+09      0.198900000000E+34     -0.188320718618E+14     -0.232691758831E+14     -0.154331731568E+07      0.124899878302E+07      0.828416987671E-01      0.102360381439E+00
     1      0.176601915362E+09      0.198900000000E+34     -0.197887226262E+14     -0.224612900478E+14     -0.148973320018E+07      0.131244850356E+07      0.870497401386E-01      0.988062493357E-01
     1      0.177232635362E+09      0.198900000000E+34     -0.207107502039E+14     -0.216141033304E+14     -0.143354261951E+07      0.137360174386E+07      0.911054645049E-01      0.950792658105E-01
     1      0.177863355362E+09      0.198900000000E+34     -0.215965414006E+14     -0.207290981036E+14     -0.137484389346E+07      0.143235152272E+07      0.950017777717E-01      0.911859512557E-01
     1      0.178494075362E+09      0.198900000000E+34     -0.224445464264E+14     -0.198078228999E+14     -0.131373972897E+07      0.148859506377E+07      0.987318646187E-01      0.871331169626E-01
     1      0.179124795362E+09      0.198900000000E+34     -0.232532816066E+14     -0.188518897020E+14     -0.125033704054E+07      0.154223397527E+07      0.102289200418E+00      0.829278532206E-01
     1      0.179755515362E+09      0.198900000000E+34     -0.240213319769E+14     -0.178629711226E+14     -0.118474676322E+07      0.159317442215E+07      0.105667562643E+00      0.785775169299E-01
     1      0.180386235362E+09      0.198900000000E+34     -0.247473537584E+14     -0.168427974788E+14     -0.111708365866E+07      0.164132729015E+07      0.108861041759E+00      0.740897187464E-01
     1      0.181016955362E+09      0.198900000000E+34     -0.254300767083E+14     -0.157931537644E+14     -0.104746611438E+07      0.168660834171E+07      0.111864051554E+00      0.694723097835E-01
     1      0.181647675362E+09      0.198900000000E+34     -0.260683063419E+14     -0.147158765275E+14     -0.976015936724E+06      0.172893836334E+07      0.114671338918E+00      0.647333678924E-01
     1      0.182278395362E+09      0.198900000000E+34     -0.266609260220E+14     -0.136128506577E+14     -0.902858137880E+06      0.176824330415E+07      0.117277993035E+00      0.598811835457E-01
     1      0.182909115362E+09      0.198900000000E+34     -0.272068989123E+14     -0.124860060881E+14     -0.828120717203E+06      0.180445440547E+07      0.119679453981E+00      0.549242453482E-01
     1      0.183539835362E+09      0.198900000000E+34     -0.277052697912E+14     -0.113373144197E+14     -0.751934437373E+06      0.183750832112E+07      0.121871520702E+00      0.498712252006E-01
     1      0.184170555362E+09      0.198900000000E+34     -0.281551667227E+14     -0.101687854714E+14     -0.674432595691E+06      0.186734722825E+07      0.123850358379E+00      0.447309631412E-01
     1      0.184801275362E+09      0.198900000000E+34     -0.285558025818E+14     -0.898246376458E+13     -0.595750790938E+06      0.189391892857E+07      0.125612505139E+00      0.395124518934E-01
     1      0.185431995362E+09      0.198900000000E+34     -0.289064764319E+14     -0.778042494601E+13     -0.516026686203E+06      0.191717693964E+07      0.127154878127E+00      0.342248211440E-01
     1      0.186062715362E+09      0.198900000000E+34     -0.292065747504E+14     -0.656477215646E+13     -0.435399768088E+06      0.193708057634E+07      0.128474778905E+00      0.288773215815E-01
     1      0.186693435362E+09      0.198900000000E+34     -0.294555725029E+14     -0.533763235137E+13     -0.354011102724E+06      0.195359502200E+07      0.129569898191E+00      0.234793087210E-01
     1      0.187324155362E+09      0.198900000000E+34     -0.296530340608E+14     -0.410115257972E+13     -0.272003089009E+06      0.196669138941E+07      0.130438319906E+00      0.180402265441E-01
     1      0.187954875362E+09      0.198900000000E+34     -0.297986139647E+14     -0.285749622767E+13     -0.189519209505E+06      0.197634677144E+07      0.131078524546E+00      0.125695909837E-01
     1      0.188585595362E+09      0.198900000000E+34     -0.298920575276E+14     -0.160883923362E+13     -0.106703779439E+06      0.198254428115E+07      0.131489391848E+00      0.707697328009E-02
     1      0.189216315362E+09      0.198900000000E+34     -0.299332012816E+14     -0.357366281264E+12     -0.237016942279E+05      0.198527308140E+07      0.131670202772E+00      0.157198323945E-02
     1      0.189847035362E+09      0.198900000000E+34     -0.299219732635E+14      0.894733022684E+12      0.593418240146E+05      0.198452840392E+07      0.131620640767E+00     -0.393574757666E-02
     1      0.190477755362E+09      0.198900000000E+34     -0.298583931405E+14      0.214526797947E+13      0.142281480555E+06      0.198031155765E+07      0.131340792343E+00     -0.943658270175E-02
     1      0.191108475362E+09      0.198900000000E+34     -0.297425721767E+14      0.339205063117E+13      0.224972162254E+06      0.197262992658E+07      0.130831146938E+00     -0.149208976249E-01
     1      0.191739195362E+09      0.198900000000E+34     -0.295747130378E+14      0.463289958889E+13      0.307269191467E+06      0.196149695689E+07      0.130092596071E+00     -0.203790966318E-01
     1      0.192369915362E+09      0.198900000000E+34     -0.293551094366E+14      0.586564384939E+13      0.389028579201E+06      0.194693213347E+07      0.129126431799E+00     -0.258016295975E-01
     1      0.193000635362E+09      0.198900000000E+34     -0.290841456197E+14      0.708812659374E+13      0.470107277069E+06      0.192896094589E+07      0.127934344474E+00     -0.311790087003E-01
     1      0.193631355362E+09      0.198900000000E+34     -0.287622956948E+14      0.829820896103E+13      0.550363427609E+06      0.190761484389E+07      0.126518419794E+00     -0.365018250285E-01
     1      0.194262075362E+09      0.198900000000E+34     -0.283901228011E+14      0.949377379085E+13      0.629656612528E+06      0.188293118239E+07      0.124881135171E+00     -0.417607650507E-01
     1      0.194892795363E+09      0.198900000000E+34     -0.279682781244E+14      0.106727293277E+14      0.707848098441E+06      0.185495315621E+07      0.123025355407E+00     -0.469466269200E-01
     1      0.195523515363E+09      0.198900000000E+34     -0.274974997574E+14      0.118330128812E+14      0.784801079656E+06      0.182372972448E+07      0.120954327693E+00     -0.520503365850E-01
     1      0.196154235363E+09      0.198900000000E+34     -0.269786114084E+14      0.129725944349E+14      0.860380917614E+06      0.178931552509E+07      0.118671675939E+00     -0.570629636777E-01
     1      0.196784955363E+09      0.198900000000E+34     -0.264125209596E+14      0.140894801990E+14      0.934455376519E+06      0.175177077907E+07      0.116181394443E+00     -0.619757371511E-01
     1      0.197415675363E+09      0.198900000000E+34     -0.258002188790E+14      0.151817160985E+14      0.100689485479E+07      0.171116118526E+07      0.113487840905E+00     -0.667800606399E-01
     1      0.198046395363E+09      0.198900000000E+34     -0.251427764866E+14      0.162473911929E+14      0.107757261191E+07      0.166755780541E+07      0.110595728818E+00     -0.714675275154E-01
     1      0.198677115363E+09      0.198900000000E+34     -0.244413440803E+14      0.172846410193E+14      0.114636499022E+07      0.162103693977E+07      0.107510119218E+00     -0.760299356095E-01
     1      0.199307835363E+09      0.198900000000E+34     -0.236971489223E+14      0.182916508558E+14      0.121315163144E+07      0.157167999367E+07      0.104236411837E+00     -0.804593015823E-01
     1      0.199938555363E+09      0.198900000000E+34     -0.229114930919E+14      0.192666588959E+14      0.127781568727E+07      0.151957333500E+07      0.100780335654E+00     -0.847478749062E-01
     1      0.200569275363E+09      0.198900000000E+34     -0.220857512067E+14      0.202079593323E+14      0.134024402395E+07      0.146480814315E+07      0.971479388754E-01     -0.888881514438E-01
     1      0.201199995363E+09      0.198900000000E+34     -0.212213680170E+14      0.211139053409E+14      0.140032742032E+07      0.140748024933E+07      0.933455783475E-01     -0.928728865943E-01
     1      0.201830715363E+09      0.198900000000E+34     -0.203198558775E+14      0.219829119628E+14      0.145796075899E+07      0.134768996897E+07      0.893799084334E-01     -0.966951079864E-01
     1      0.202461435363E+09      0.198900000000E+34     -0.193827921002E+14      0.228134588776E+14      0.151304321031E+07      0.128554192605E+07      0.852578693642E-01     -0.100348127694E+00
     1      0.203092155363E+09      0.198900000000E+34     -0.184118161946E+14      0.236040930635E+14      0.156547840894E+07      0.122114487003E+07      0.809866750898E-01     -0.103825553955E+00
     1      0.203722875363E+09      0.198900000000E+34     -0.174086269980E+14      0.243534313396E+14      0.161517462246E+07      0.115461148545E+07      0.765738006487E-01     -0.107121302371E+00
     1      0.204353595363E+09      0.198900000000E+34     -0.163749797024E+14      0.250601627863E+14      0.166204491200E+07      0.108605819473E+07      0.720269690792E-01     -0.110229606566E+00
     1      0.204984315363E+09      0.198900000000E+34     -0.153126827829E+14      0.257230510386E+14      0.170600728439E+07      0.101560495435E+07      0.673541378954E-01     -0.113145028295E+00
     1      0.205615035363E+09      0.198900000000E+34     -0.142235948324E+14      0.263409364494E+14      0.174698483566E+07      0.943375044823E+06      0.625634851514E-01     -0.115862466967E+00
     1      0.206245755363E+09      0.198900000000E+34     -0.131096213089E+14      0.269127381185E+14      0.178490588569E+07      0.869494854949E+06      0.576633951177E-01     -0.118377168589E+00
     1      0.206876475363E+09      0.198900000000E+34     -0.119727112009E+14      0.274374557832E+14      0.181970410363E+07      0.794093660498E+06      0.526624435962E-01     -0.120684734089E+00
     1      0.207507195363E+09      0.198900000000E+34     -0.108148536161E+14      0.279141715684E+14      0.185131862400E+07      0.717303397913E+06      0.475693828978E-01     -0.122781127026E+00
     1      0.208137915363E+09      0.198900000000E+34     -0.963807430044E+13      0.283420515920E+14      0.187969415318E+07      0.639258433322E+06      0.423931265112E-01     -0.124662680663E+00
     1      0.208768635363E+09      0.198900000000E+34     -0.844443209261E+13      0.287203474233E+14      0.190478106618E+07      0.560095327304E+06      0.371427334878E-01     -0.126326104387E+00
     1      0.209399355363E+09      0.198900000000E+34     -0.723601532103E+13      0.290483973925E+14      0.192653549347E+07      0.479952595809E+06      0.318273925712E-01     -0.127768489473E+00
     1      0.210030075363E+09      0.198900000000E+34     -0.601493814894E+13      0.293256277469E+14      0.194491939768E+07      0.398970467646E+06      0.264564060990E-01     -0.128987314178E+00
     1      0.210660795363E+09      0.198900000000E+34     -0.478333687446E+13      0.295515536546E+14      0.195990064016E+07      0.317290638988E+06      0.210391737059E-01     -0.129980448155E+00
     1      0.211291515363E+09      0.198900000000E+34     -0.354336619188E+13      0.297257800518E+14      0.197145303712E+07      0.235056025289E+06      0.155851758546E-01     -0.130746156179E+00
     1      0.211922235363E+09      0.198900000000E+34     -0.229719542083E+13      0.298480023327E+14      0.197955640542E+07      0.152410511090E+06      0.101039572267E-01     -0.131283101184E+00
     1      0.212552955363E+09      0.198900000000E+34     -0.104700470991E+13      0.299180068820E+14      0.198419659781E+07      0.694986981110E+05      0.460510999976E-02     -0.131590346597E+00
     1      0.213183675363E+09      0.198900000000E+34      0.205018778596E+12      0.299356714471E+14      0.198536552754E+07     -0.135343478964E+05     -0.901742957740E-03     -0.131667357973E+00
     1      0.213814395363E+09      0.198900000000E+34      0.145668469619E+13      0.299009653508E+14      0.198306118247E+07     -0.965433511079E+05     -0.640696494574E-02     -0.131514003920E+00
     1      0.214445115363E+09      0.198900000000E+34      0.270580334120E+13      0.298139495437E+14      0.197728762844E+07     -0.179383079948E+06     -0.119009223152E-01     -0.131130556322E+00
     1      0.215075835363E+09      0.198900000000E+34      0.395018949049E+13      0.296747764961E+14      0.196805500203E+07     -0.261908601328E+06     -0.173740013450E-01     -0.130517689847E+00
     1      0.215706555363E+09      0.198900000000E+34      0.518766622340E+13      0.294836899298E+14      0.195537949267E+07     -0.343975534349E+06     -0.228166250835E-01     -0.129676480760E+00
     1      0.216337275363E+09      0.198900000000E+34      0.641606873092E+13      0.292410243902E+14      0.193928331418E+07     -0.425440303039E+06     -0.282192701243E-01     -0.128608405019E+00
     1      0.216967995364E+09      0.198900000000E+34      0.763324810367E+13      0.289472046588E+14      0.191979466571E+07     -0.506160387661E+06     -0.335724832879E-01     -0.127315335679E+00
     1      0.217598715364E+09      0.198900000000E+34      0.883707509189E+13      0.286027450091E+14      0.189694768225E+07     -0.585994574170E+06     -0.388668981788E-01     -0.125799539592E+00
     1      0.218229435364E+09      0.198900000000E+34      0.100254438310E+14      0.282082483042E+14      0.187078237467E+07     -0.664803201367E+06     -0.440932515898E-01     -0.124063673425E+00
     1      0.218860155364E+09      0.198900000000E+34      0.111962755259E+14      0.277644049408E+14      0.184134455956E+07     -0.742448405327E+06     -0.492423997240E-01     -0.122110778985E+00
     1      0.219490875364E+09      0.198900000000E+34      0.123475220882E+14      0.272719916391E+14      0.180868577883E+07     -0.818794360664E+06     -0.543053342062E-01     -0.119944277876E+00
     1      0.220121595364E+09      0.198900000000E+34      0.134771697191E+14      0.267318700821E+14      0.177286320930E+07     -0.893707518220E+06     -0.592731978556E-01     -0.117567965489E+00
     1      0.220752315364E+09      0.198900000000E+34      0.145832424323E+14      0.261449854057E+14      0.173393956248E+07     -0.967056838746E+06     -0.641373001925E-01     -0.114986004332E+00
     1      0.221383035364E+09      0.198900000000E+34      0.156638055111E+14      0.255123645437E+14      0.169198297459E+07     -0.103871402219E+07     -0.688891326508E-01     -0.112202916720E+00
     1      0.222013755364E+09      0.198900000000E+34      0.167169688923E+14      0.248351144288E+14      0.164706688709E+07     -0.110855373214E+07     -0.735203834702E-01     -0.109223576839E+00
     1      0.222644475364E+09      0.198900000000E+34      0.177408904722E+14      0.241144200537E+14      0.159926991798E+07     -0.117645381514E+07     -0.780229522422E-01     -0.106053202185E+00
     1      0.223275195364E+09      0.198900000000E+34      0.187337793290E+14      0.233515423965E+14      0.154867572402E+07     -0.124229551431E+07     -0.823889640839E-01     -0.102697344408E+00
     1      0.223905915364E+09      0.198900000000E+34      0.196938988547E+14      0.225478162123E+14      0.149537285407E+07     -0.130596367710E+07     -0.866107834151E-01     -0.991618795673E-01
     1      0.224536635364E+09      0.198900000000E+34      0.206195697923E+14      0.217046476957E+14      0.143945459396E+07     -0.136734695667E+07     -0.906810273139E-01     -0.954529978249E-01
     1      0.225167355364E+09      0.198900000000E+34      0.215091731725E+14      0.208235120196E+14      0.138101880306E+07     -0.142633800659E+07     -0.945925784283E-01     -0.915771925807E-01
     1      0.225798075364E+09      0.198900000000E+34      0.223611531445E+14      0.199059507517E+14      0.132016774279E+07     -0.148283366857E+07     -0.983385974208E-01     -0.875412490850E-01
     1      0.226428795364E+09      0.198900000000E+34      0.231740196967E+14      0.189535691560E+14      0.125700789747E+07     -0.153673515278E+07     -0.101912534924E+00     -0.833522325362E-01
     1      0.227059515364E+09      0.198900000000E+34      0.239463512613E+14      0.179680333829E+14      0.119164978787E+07     -0.158794821058E+07     -0.105308142988E+00     -0.790174756918E-01
     1      0.227690235364E+09      0.198900000000E+34      0.246767972001E+14      0.169510675522E+14      0.112420777752E+07     -0.163638329917E+07     -0.108519485994E+00     -0.745445660104E-01
     1      0.228320955364E+09      0.198900000000E+34      0.253640801649E+14      0.159044507357E+14      0.105479987252E+07     -0.168195573814E+07     -0.111540951024E+00     -0.699413323504E-01
     1      0.228951675364E+09      0.198900000000E+34      0.260069983303E+14      0.148300138431E+14      0.983547514838E+06     -0.172458585739E+07     -0.114367257662E+00     -0.652158312461E-01
     1      0.229582395364E+09      0.198900000000E+34      0.266044274941E+14      0.137296364175E+14      0.910575369645E+06     -0.176419913631E+07     -0.116993467210E+00     -0.603763327879E-01
     1      0.230213115364E+09      0.198900000000E+34      0.271553230418E+14      0.126052433461E+14      0.836011107074E+06     -0.180072633391E+07     -0.119414991306E+00     -0.554313061300E-01
     1      0.230843835364E+09      0.198900000000E+34      0.276587217715E+14      0.114588014917E+14      0.759985178680E+06     -0.183410360971E+07     -0.121627599927E+00     -0.503894046508E-01
     1      0.231474555364E+09      0.198900000000E+34      0.281137435766E+14      0.102923162506E+14      0.682630589078E+06     -0.186427263520E+07     -0.123627428759E+00     -0.452594507942E-01
     1      0.232105275364E+09      0.198900000000E+34      0.285195929828E+14      0.910782804404E+13      0.604082663122E+06     -0.189118069559E+07     -0.125410985936E+00     -0.400504206154E-01
     1      0.232735995364E+09      0.198900000000E+34      0.288755605373E+14      0.790740874728E+13      0.524478809048E+06     -0.191478078178E+07     -0.126975158113E+00     -0.347714280613E-01
     1      0.233366715364E+09      0.198900000000E+34      0.291810240467E+14      0.669315806515E+13      0.443958277990E+06     -0.193503167228E+07     -0.128317215883E+00     -0.294317090110E-01
     1      0.233997435364E+09      0.198900000000E+34      0.294354496634E+14      0.546719985824E+13      0.362661920289E+06     -0.195189800505E+07     -0.129434818523E+00     -0.240406051061E-01
     1      0.234628155364E+09      0.198900000000E+34      0.296383928162E+14      0.423167842735E+13      0.280731939033E+06     -0.196535033906E+07     -0.130326018050E+00     -0.186075473972E-01
     1      0.235258875364E+09      0.198900000000E+34      0.297894989852E+14      0.298875476227E+13      0.198311641241E+06     -0.197536520548E+07     -0.130989262600E+00     -0.131420398374E-01
     1      0.235889595364E+09      0.198900000000E+34      0.298885043194E+14      0.174060276163E+13      0.115545187145E+06     -0.198192514841E+07     -0.131423399104E+00     -0.765364265067E-02
     1      0.236520315364E+09      0.198900000000E+34      0.299352360953E+14      0.489405430338E+12      0.325773380010E+05     -0.198501875516E+07     -0.131627675274E+00     -0.215195560364E-02
     1      0.237151035364E+09      0.198900000000E+34      0.299296130161E+14     -0.762648938753E+12     -0.504467971338E+05     -0.198464067582E+07     -0.131601740879E+00      0.335339878819E-02
     1      0.237781755364E+09      0.198900000000E+34      0.298716453511E+14     -0.201337059216E+13     -0.133382015204E+06     -0.198079163235E+07     -0.131345648324E+00      0.885279209216E-02
     1      0.238412475364E+09      0.198900000000E+34      0.297614349151E+14     -0.326057214549E+13     -0.216083273105E+06     -0.197347841703E+07     -0.130859852526E+00      0.143366067975E-01
     1      0.239043195365E+09      0.198900000000E+34      0.295991748874E+14     -0.450207240881E+13     -0.298405941328E+06     -0.196271388019E+07     -0.130145210076E+00      0.197952531329E-01
     1      0.239673915365E+09      0.198900000000E+34      0.293851494713E+14     -0.573570020098E+13     -0.380206056860E+06     -0.194851690751E+07     -0.129202977712E+00      0.252191858324E-01
     1      0.240304635365E+09      0.198900000000E+34      0.291197333940E+14     -0.695929814629E+13     -0.461340574896E+06     -0.193091238661E+07     -0.128034810083E+00      0.305989208218E-01
     1      0.240935355365E+09      0.198900000000E+34      0.288033912490E+14     -0.817072644676E+13     -0.541667618924E+06     -0.190993116330E+07     -0.126642756825E+00      0.359250517945E-01
     1      0.241566075365E+09      0.198900000000E+34      0.284366766806E+14     -0.936786662352E+13     -0.621046728743E+06     -0.188560998727E+07     -0.125029258937E+00      0.411882666498E-01
     1      0.242196795365E+09      0.198900000000E+34      0.280202314132E+14     -0.105486252207E+14     -0.699339105990E+06     -0.185799144757E+07     -0.123197144485E+00      0.463793637631E-01
     1      0.242827515365E+09      0.198900000000E+34      0.275547841264E+14     -0.117109374655E+14     -0.776407856736E+06     -0.182712389788E+07     -0.121149623627E+00      0.514892680615E-01
     1      0.243458235365E+09      0.198900000000E+34      0.270411491784E+14     -0.128527708775E+14     -0.852118230728E+06     -0.179306137161E+07     -0.118890282963E+00      0.565090468752E-01
     1      0.244088955365E+09      0.198900000000E+34      0.264802251795E+14     -0.139721288222E+14     -0.926337856877E+06     -0.175586348722E+07     -0.116423079240E+00      0.614299255383E-01
     1      0.244719675365E+09      0.198900000000E+34      0.258729934183E+14     -0.150670540007E+14     -0.998936974554E+06     -0.171559534367E+07     -0.113752332404E+00      0.662433027108E-01
     1      0.245350395365E+09      0.198900000000E+34      0.252205161433E+14     -0.161356318711E+14     -0.106978866032E+07     -0.167232740640E+07     -0.110882718024E+00      0.709407653964E-01
     1      0.245981115365E+09      0.198900000000E+34      0.245239347037E+14     -0.171759939947E+14     -0.113876904965E+07     -0.162613538384E+07     -0.107819259087E+00      0.755141036283E-01
     1      0.246611835365E+09      0.198900000000E+34      0.237844675514E+14     -0.181863213019E+14     -0.120575755334E+07     -0.157710009485E+07     -0.104567317199E+00      0.799553247996E-01
     1      0.247242555365E+09      0.198900000000E+34      0.230034081083E+14     -0.191648472708E+14     -0.127063706815E+07     -0.152530732720E+07     -0.101132583188E+00      0.842566676111E-01
     1      0.247873275365E+09      0.198900000000E+34      0.221821225031E+14     -0.201098610146E+14     -0.133329418131E+07     -0.147084768739E+07     -0.975210671375E-01      0.884106156143E-01
     1      0.248503995365E+09      0.198900000000E+34      0.213220471808E+14     -0.210197102715E+14     -0.139361936861E+07     -0.141381644205E+07     -0.937390878597E-01      0.924099103250E-01
     1      0.249134715365E+09      0.198900000000E+34      0.204246863893E+14     -0.218928042913E+14     -0.145150718567E+07     -0.135431335126E+07     -0.897932618372E-01      0.962475638848E-01
     1      0.249765435365E+09      0.198900000000E+34      0.194916095478E+14     -0.227276166153E+14     -0.150685645205E+07     -0.129244249394E+07     -0.856904916425E-01      0.999168712489E-01
     1      0.250396155365E+09      0.198900000000E+34      0.185244485017E+14     -0.235226877430E+14     -0.155957042794E+07     -0.122831208579E+07     -0.814379538600E-01      0.103411421879E+00
     1      0.251026875365E+09      0.198900000000E+34      0.175248946675E+14     -0.242766276824E+14     -0.160955698299E+07     -0.116203429001E+07     -0.770430865330E-01      0.106725110921E+00
     1      0.251657595365E+09      0.198900000000E+34      0.164946960751E+14     -0.249881183777E+14     -0.165672875720E+07     -0.109372502106E+07     -0.725135761543E-01      0.109852149848E+00
     1      0.252288315365E+09      0.198900000000E+34      0.154356543100E+14     -0.256559160120E+14     -0.170100331341E+07     -0.102350374199E+07     -0.678573442257E-01      0.112787076549E+00
     1      0.252919035365E+09      0.198900000000E+34      0.143496213628E+14     -0.262788531802E+14     -0.174230328111E+07     -0.951493255499E+06     -0.630825334086E-01      0.115524764853E+00
     1      0.253549755365E+09      0.198900000000E+34      0.132384963907E+14     -0.268558409274E+14     -0.178055649155E+07     -0.877819489219E+06     -0.581974932906E-01      0.118060433456E+00
     1      0.254180475365E+09      0.198900000000E+34      0.121042223959E+14     -0.273858706513E+14     -0.181569610363E+07     -0.802611275538E+06     -0.532107657921E-01      0.120389654253E+00
     1      0.254811195365E+09      0.198900000000E+34      0.109487828287E+14     -0.278680158633E+14     -0.184766072049E+07     -0.726000126365E+06     -0.481310702390E-01      0.122508360055E+00
     1      0.255441915365E+09      0.198900000000E+34      0.977419811917E+13     -0.283014338062E+14     -0.187639449667E+07     -0.648120003230E+06     -0.429672881276E-01      0.124412851668E+00
     1      0.256072635365E+09      0.198900000000E+34      0.858252214454E+13     -0.286853669259E+14     -0.190184723551E+07     -0.569107083114E+06     -0.377284476072E-01      0.126099804339E+00
     1      0.256703355365E+09      0.198900000000E+34      0.737583863830E+13     -0.290191441937E+14     -0.192397447664E+07     -0.489099520428E+06     -0.324237077090E-01      0.127566273537E+00
     1      0.257334075365E+09      0.198900000000E+34      0.615625754730E+13     -0.293021822774E+14     -0.194273757356E+07     -0.408237205544E+06     -0.270623423476E-01      0.128809700086E+00
     1      0.257964795365E+09      0.198900000000E+34      0.492591134299E+13     -0.295339865597E+14     -0.195810376096E+07     -0.326661520308E+06     -0.216537241230E-01      0.129827914610E+00
     1      0.258595515365E+09      0.198900000000E+34      0.368695129351E+13     -0.297141520010E+14     -0.197004621184E+07     -0.244515090958E+06     -0.162073079519E-01      0.130619141310E+00
     1      0.259226235365E+09      0.198900000000E+34      0.244154370304E+13     -0.298423638456E+14     -0.197854408420E+07     -0.161941538880E+06     -0.107326145564E-01      0.131182001047E+00
     1      0.259856955365E+09      0.198900000000E+34      0.119186612492E+13     -0.299183981705E+14     -0.198358255734E+07     -0.790852296353E+05     -0.523921383864E-02      0.131515513737E+00
     1      0.260487675365E+09      0.198900000000E+34     -0.598964447681E+11     -0.299421222753E+14     -0.198515285760E+07      0.390897930436E+04      0.263291829627E-03      0.131619100054E+00
     1      0.261118395366E+09      0.198900000000E+34     -0.131155538652E+13     -0.299134949127E+14     -0.198325227357E+07      0.868959916734E+05      0.576528437296E-02      0.131492582420E+00
     1      0.261749115366E+09      0.198900000000E+34     -0.256092228302E+13     -0.298325663591E+14     -0.197788416067E+07      0.169730725937E+06      0.112571468053E-01      0.131136185315E+00
     1      0.262379835366E+09      0.198900000000E+34     -0.380581274428E+13     -0.296994783258E+14     -0.196905793522E+07      0.252268368783E+06      0.167292800204E-01      0.130550534868E+00
     1      0.263010555366E+09      0.198900000000E+34     -0.504405022569E+13     -0.295144637094E+14     -0.195678905782E+07      0.334364628143E+06      0.221721195511E-01      0.129736657759E+00
     1      0.263641275366E+09      0.198900000000E+34     -0.627346983229E+13     -0.292778461840E+14     -0.194109900629E+07      0.415875985298E+06      0.275761522670E-01      0.128695979419E+00
     1      0.264271995366E+09      0.198900000000E+34     -0.749192210264E+13     -0.289900396341E+14     -0.192201523801E+07      0.496659945623E+06      0.329319329836E-01      0.127430321531E+00
     1      0.264902715366E+09      0.198900000000E+34     -0.869727676565E+13     -0.286515474302E+14     -0.189957114187E+07      0.576575287549E+06      0.382301009517E-01      0.125941898849E+00
     1      0.265533435366E+09      0.198900000000E+34     -0.988742646383E+13     -0.282629615481E+14     -0.187380597989E+07      0.655482309294E+06      0.434613962001E-01      0.124233315325E+00
     1      0.266164155366E+09      0.198900000000E+34     -0.110602904364E+14     -0.278249615328E+14     -0.184476481849E+07      0.733243072937E+06      0.486166757027E-01      0.122307559557E+00
     1      0.266794875366E+09      0.198900000000E+34     -0.122138181562E+14     -0.273383133102E+14     -0.181249844974E+07      0.809721645419E+06      0.536869293416E-01      0.120167999575E+00
     1      0.267425595366E+09      0.198900000000E+34     -0.133459929132E+14     -0.268038678478E+14     -0.177706330252E+07      0.884784336027E+06      0.586632956384E-01      0.117818376949E+00
     1      0.268056315366E+09      0.198900000000E+34     -0.144548353391E+14     -0.262225596658E+14     -0.173852134393E+07      0.958299929981E+06      0.635370772273E-01      0.115262800267E+00
     1      0.268687035366E+09      0.198900000000E+34     -0.155384068673E+14     -0.255954052038E+14     -0.169693997091E+07      0.103013991768E+07      0.682997560414E-01      0.112505737952E+00
     1      0.269317755366E+09      0.198900000000E+34     -0.165948131204E+14     -0.249235010430E+14     -0.165239189252E+07      0.110017871924E+07      0.729430081878E-01      0.109552010466E+00
     1      0.269948475366E+09      0.198900000000E+34     -0.176222072212E+14     -0.242080219892E+14     -0.160495500281E+07      0.116829390391E+07      0.774587184834E-01      0.106406781895E+00
     1      0.270579195366E+09      0.198900000000E+34     -0.186187930210E+14     -0.234502190187E+14     -0.155471224473E+07      0.123436640398E+07      0.818389946283E-01      0.103075550931E+00
     1      0.271209915366E+09      0.198900000000E+34     -0.195828282382E+14     -0.226514170914E+14     -0.150175146518E+07      0.129828072284E+07      0.860761809902E-01      0.995641412737E-01
     1      0.271840635366E+09      0.198900000000E+34     -0.205126275035E+14     -0.218130128344E+14     -0.144616526149E+07      0.135992513681E+07      0.901628719769E-01      0.958786914686E-01
     1      0.272471355366E+09      0.198900000000E+34     -0.214065653061E+14     -0.209364721006E+14     -0.138805081962E+07      0.141919189033E+07      0.940919249736E-01      0.920256441861E-01
     1      0.273102075366E+09      0.198900000000E+34     -0.222630788338E+14     -0.200233274059E+14     -0.132750974436E+07      0.147597738429E+07      0.978564728215E-01      0.880117349768E-01
     1      0.273732795366E+09      0.198900000000E+34     -0.230806707054E+14     -0.190751752504E+14     -0.126464788174E+07      0.153018235707E+07      0.101449935817E+00      0.838439805131E-01
     1      0.274363515366E+09      0.198900000000E+34     -0.238579115869E+14     -0.180936733277E+14     -0.119957513411E+07      0.158171205800E+07      0.104866033209E+00      0.795296663391E-01
     1      0.274994235366E+09      0.198900000000E+34     -0.245934426906E+14     -0.170805376266E+14     -0.113240526810E+07      0.163047641300E+07      0.108098794179E+00      0.750763341510E-01
     1      0.275624955366E+09      0.198900000000E+34     -0.252859781496E+14     -0.160375394323E+14     -0.106325571579E+07      0.167639018194E+07      0.111142568274E+00      0.704917686298E-01
     1      0.276255675366E+09      0.198900000000E+34     -0.259343072652E+14     -0.149665022292E+14     -0.992247369527E+06      0.171937310771E+07      0.113992035288E+00      0.657839838485E-01
     1      0.276886395366E+09      0.198900000000E+34     -0.265372966235E+14     -0.138692985139E+14     -0.919504370677E+06      0.175935005644E+07      0.116642214566E+00      0.609612092785E-01
     1      0.277517115366E+09      0.198900000000E+34     -0.270938920761E+14     -0.127478465219E+14     -0.845153892663E+06      0.179625114892E+07      0.119088473712E+00      0.560318754187E-01
     1      0.278147835366E+09      0.198900000000E+34     -0.276031205831E+14     -0.116041068742E+14     -0.769325918739E+06      0.183001188270E+07      0.121326536695E+00      0.510045990721E-01
     1      0.278778555366E+09      0.198900000000E+34     -0.280640919136E+14     -0.104400791501E+14     -0.692153014828E+06      0.186057324491E+07      0.123352491328E+00      0.458881682968E-01
     1      0.279409275366E+09      0.198900000000E+34     -0.284760002021E+14     -0.925779839192E+13     -0.613770097848E+06      0.188788181545E+07      0.125162796122E+00      0.406915270559E-01
     1      0.280039995366E+09      0.198900000000E+34     -0.288381253572E+14     -0.805933154744E+13     -0.534314199916E+06      0.191188986038E+07      0.126754286480E+00      0.354237595943E-01
     1      0.280670715366E+09      0.198900000000E+34     -0.291498343200E+14     -0.684677385669E+13     -0.453924228851E+06      0.193255541545E+07      0.128124180242E+00      0.300940745687E-01
     1      0.281301435366E+09      0.198900000000E+34     -0.294105821713E+14     -0.562224518921E+13     -0.372740725394E+06      0.194984235947E+07      0.129270082562E+00      0.247117889594E-01
     1      0.281932155366E+09      0.198900000000E+34     -0.296199130841E+14     -0.438788633829E+13     -0.290905617558E+06      0.196372047755E+07      0.130189990105E+00      0.192863117910E-01
     1      0.282562875366E+09      0.198900000000E+34     -0.297774611201E+14     -0.314585527853E+13     -0.208561972556E+06      0.197416551395E+07      0.130882294565E+00      0.138271276910E-01
     1      0.283193595367E+09      0.198900000000E+34     -0.298829508702E+14     -0.189832339333E+13     -0.125853746716E+06      0.198115921454E+07      0.131345785488E+00      0.834378031444E-02
     1      0.283824315367E+09      0.198900000000E+34     -0.299361979352E+14     -0.647471678950E+12     -0.429255338403E+05      0.198468935881E+07      0.131579652405E+00      0.284585566420E-02
     1      0.284455035367E+09      0.198900000000E+34     -0.299371092489E+14      0.604513068363E+12      0.400776875579E+05      0.198474978127E+07      0.131583486262E+00     -0.265703466439E-02
     1      0.285085755367E+09      0.198900000000E+34     -0.298856832408E+14      0.185544207534E+13      0.123010807705E+06      0.198134038232E+07      0.131357280150E+00     -0.815527028540E-02
     1      0.285716475367E+09      0.198900000000E+34     -0.297820098384E+14      0.310312841822E+13      0.205728839254E+06      0.197446712848E+07      0.130901429334E+00     -0.136392388410E-01
     1      0.286347195367E+09      0.198900000000E+34     -0.296262703108E+14      0.434539084605E+13      0.288087170764E+06      0.196414204202E+07      0.130216730577E+00     -0.190993528080E-01
     1      0.286977915367E+09      0.198900000000E+34     -0.294187369513E+14      0.558005759413E+13      0.369941819540E+06      0.195038318004E+07      0.129304380758E+00     -0.245260662618E-01
     1      0.287608635367E+09      0.198900000000E+34     -0.291597726016E+14      0.680497018094E+13      0.451149683372E+06      0.193321460293E+07      0.128165974800E+00     -0.299098915702E-01
     1      0.288239355367E+09      0.198900000000E+34     -0.288498300178E+14      0.801798718180E+13      0.531568790753E+06      0.191266633240E+07      0.126803502892E+00     -0.352414159863E-01
     1      0.288870075367E+09      0.198900000000E+34     -0.284894510784E+14      0.921698797286E+13      0.611058549125E+06      0.188877429901E+07      0.125219347021E+00     -0.405113181117E-01
     1      0.289500795367E+09      0.198900000000E+34     -0.280792658371E+14      0.103998764387E+14      0.689479990721E+06      0.186158027946E+07      0.123416276827E+00     -0.457103842019E-01
     1      0.290131515367E+09      0.198900000000E+34     -0.276199914214E+14      0.115645846370E+14      0.766696015577E+06      0.183113182356E+07      0.121397444764E+00     -0.508295242844E-01
     1      0.290762235367E+09      0.198900000000E+34     -0.271124307788E+14      0.127090764143E+14      0.842571631285E+06      0.179748217115E+07      0.119166380607E+00     -0.558597880621E-01
     1      0.291392955367E+09      0.198900000000E+34     -0.265574712725E+14      0.138313509659E+14      0.916974189065E+06      0.176069015906E+07      0.116726985285E+00     -0.607923805734E-01
     1      0.292023675367E+09      0.198900000000E+34     -0.259560831305E+14      0.149294463341E+14      0.989773615748E+06      0.172082011826E+07      0.114083524071E+00     -0.656186775816E-01
     1      0.292654395367E+09      0.198900000000E+34     -0.253093177487E+14      0.160014428383E+14      0.106084264126E+07      0.167794176141E+07      0.111240619134E+00     -0.703302406668E-01
     1      0.293285115367E+09      0.198900000000E+34     -0.246183058525E+14      0.170454664321E+14      0.113005702121E+07      0.163213006101E+07      0.108203241460E+00     -0.749188319943E-01
     1      0.293915835367E+09      0.198900000000E+34     -0.238842555200E+14      0.180596919789E+14      0.119729575420E+07      0.158346511829E+07      0.104976702167E+00     -0.793764287320E-01
     1      0.294546555367E+09      0.198900000000E+34     -0.231084500694E+14      0.190423464440E+14      0.126244129343E+07      0.153203202319E+07      0.101566643223E+00     -0.836952370931E-01
     1      0.295177275367E+09      0.198900000000E+34     -0.222922458148E+14      0.199917119940E+14      0.132537975232E+07      0.147792070553E+07      0.979790275811E-01     -0.878677059786E-01
     1      0.295807995367E+09      0.198900000000E+34     -0.214370696947E+14      0.209061290008E+14      0.138600110370E+07      0.142122577780E+07      0.942201287531E-01     -0.918865401958E-01
     1      0.296438715367E+09      0.198900000000E+34     -0.205444167767E+14      0.217839989426E+14      0.144419937224E+07      0.136204636969E+07      0.902965198413E-01     -0.957447132288E-01
     1      0.297069435367E+09      0.198900000000E+34     -0.196158476433E+14      0.226237871995E+14      0.149987281984E+07      0.130048595471E+07      0.862150620407E-01     -0.994354795405E-01
     1      0.297700155367E+09      0.198900000000E+34     -0.186529856624E+14      0.234240257361E+14      0.155292412353E+07      0.123665216924E+07      0.819828926382E-01     -0.102952386382E+00
     1      0.298330875367E+09      0.198900000000E+34     -0.176575141491E+14      0.241833156685E+14      0.160326054577E+07      0.117065662426E+07      0.776074125264E-01     -0.106289285088E+00
     1      0.298961595367E+09      0.198900000000E+34     -0.166311734217E+14      0.249003297095E+14      0.165079409659E+07      0.110261471017E+07      0.730962732558E-01     -0.109440341848E+00
     1      0.299592315367E+09      0.198900000000E+34     -0.155757577587E+14      0.255738144896E+14      0.169544168748E+07      0.103264539491E+07      0.684573636462E-01     -0.112400047912E+00
     1      0.300223035367E+09      0.198900000000E+34     -0.144931122603E+14      0.262025927478E+14      0.173712527680E+07      0.960871015894E+06      0.636987959826E-01     -0.115163229242E+00
     1      0.300853755367E+09      0.198900000000E+34     -0.133851296227E+14      0.267855653899E+14      0.177577200615E+07      0.887417066013E+06      0.588288918185E-01     -0.117725055568E+00
     1      0.301484475367E+09      0.198900000000E+34     -0.122537468278E+14      0.273217134095E+14      0.181131432789E+07      0.812411974109E+06      0.538561674120E-01     -0.120081048845E+00
     1      0.302115195367E+09      0.198900000000E+34     -0.111009417557E+14      0.278100996694E+14      0.184369012319E+07      0.735986880323E+06      0.487893188202E-01     -0.122227091093E+00
     1      0.302745915367E+09      0.198900000000E+34     -0.992872972636E+13      0.282498705397E+14      0.187284281069E+07      0.658275406680E+06      0.436372066782E-01     -0.124159431604E+00
     1      0.303376635367E+09      0.198900000000E+34     -0.873915997499E+13      0.286402573896E+14      0.189872144543E+07      0.579413423348E+06      0.384088406890E-01     -0.125874693508E+00
     1      0.304007355367E+09      0.198900000000E+34     -0.753431206852E+13      0.289805779305E+14      0.192128080788E+07      0.499538810949E+06      0.331133638527E-01     -0.127369879685E+00
     1      0.304638075367E+09      0.198900000000E+34     -0.631629226909E+13      0.292702374084E+14      0.194048148302E+07      0.418791219359E+06      0.277600364604E-01     -0.128642378003E+00
     1      0.305268795368E+09      0.198900000000E+34     -0.508722985071E+13      0.295087296427E+14      0.195628992918E+07      0.337311823404E+06      0.223582198839E-01     -0.129689965896E+00
     1      0.305899515368E+09      0.198900000000E+34     -0.384927337583E+13      0.296956379106E+14      0.196867853668E+07      0.255243075902E+06      0.169173601872E-01     -0.130510814243E+00
     1      0.306530235368E+09      0.198900000000E+34     -0.260458693817E+13      0.298306356747E+14      0.197762567599E+07      0.172728458460E+06      0.114469715900E-01     -0.131103490567E+00
     1      0.307160955368E+09      0.198900000000E+34     -0.135534637848E+13      0.299134871524E+14      0.198311573551E+07      0.899122304758E+05      0.595661981183E-02     -0.131466961539E+00
     1      0.307791675368E+09      0.198900000000E+34     -0.103735479784E+12      0.299440477274E+14      0.198513914877E+07      0.693917678876E+04      0.455905325930E-03     -0.131600594775E+00
     1      0.308422395368E+09      0.198900000000E+34      0.114805785125E+13      0.299222642014E+14      0.198369241106E+07     -0.760456455933E+05     -0.504555344716E-02     -0.131504159938E+00
     1      0.309053115368E+09      0.198900000000E+34      0.239784540996E+13      0.298481748854E+14      0.197877808541E+07     -0.158897161231E+06     -0.105381369773E-01     -0.131177829129E+00
     1      0.309683835368E+09      0.198900000000E+34      0.364344251990E+13      0.297219095315E+14      0.197040479804E+07     -0.241470530020E+06     -0.160122414638E-01     -0.130622176577E+00
     1      0.310314555368E+09      0.198900000000E+34      0.488267185276E+13      0.295436891049E+14      0.195858722307E+07     -0.323621400536E+06     -0.214582956462E-01     -0.129838177623E+00
     1      0.310945275368E+09      0.198900000000E+34      0.611336723531E+13      0.293138253955E+14      0.194334605678E+07     -0.405206162518E+06     -0.268667775576E-01     -0.128827206996E+00
     1      0.311575995368E+09      0.198900000000E+34      0.733337743678E+13      0.290327204715E+14      0.192470798120E+07     -0.486082198049E+06     -0.322282311904E-01     -0.127591036396E+00
     1      0.312206715368E+09      0.198900000000E+34      0.854056993001E+13      0.287008659747E+14      0.190270561733E+07     -0.566108130981E+06     -0.375332830461E-01     -0.126131831379E+00
     1      0.312837435368E+09      0.198900000000E+34      0.973283461978E+13      0.283188422592E+14      0.187737746789E+07     -0.645144074190E+06     -0.427726585390E-01     -0.124452147549E+00
     1      0.313468155368E+09      0.198900000000E+34      0.109080875318E+14      0.278873173753E+14      0.184876784983E+07     -0.723051874204E+06     -0.479371982255E-01     -0.122554926068E+00
     1      0.314098875368E+09      0.198900000000E+34      0.120642744557E+14      0.274070458992E+14      0.181692681664E+07     -0.799695352791E+06     -0.530178738315E-01     -0.120443488492E+00
     1      0.314729595368E+09      0.198900000000E+34      0.131993745366E+14      0.268788676122E+14      0.178191007061E+07     -0.874940545080E+06     -0.580058040470E-01     -0.118121530940E+00
