 # Tag              Time [sec]                Mass [g]             posx [code]             posy [code]             velx [code]             vely [code]             accx [code]             accy [code]
     2      0.315360000000E+03      0.397800000000E+34      0.149598000000E+14     -0.313142533688E+09     -0.207850813232E+02     -0.992968460453E+06     -0.659090604691E-01      0.137962607712E-05
     2      0.631035360000E+06      0.397800000000E+34      0.149466857971E+14     -0.626415284100E+12     -0.415787785444E+05     -0.992097995332E+06     -0.658511960026E-01      0.275982222495E-02
     2      0.126175536000E+07      0.397800000000E+34      0.149073792831E+14     -0.125142025585E+13     -0.830638918015E+05     -0.989488997304E+06     -0.656779349003E-01      0.551342369010E-02
     2      0.189247536000E+07      0.397800000000E+34      0.148419493494E+14     -0.187423281240E+13     -0.124403426941E+06     -0.985146041425E+06     -0.653895806903E-01      0.825735857425E-02
     2      0.252319536000E+07      0.397800000000E+34      0.147505106661E+14     -0.249376155230E+13     -0.165524941105E+06     -0.979076741380E+06     -0.649866386031E-01      0.109868183164E-01
     2      0.315391536000E+07      0.397800000000E+34      0.146332234804E+14     -0.310892083062E+13     -0.206356373453E+06     -0.971291736174E+06     -0.644698146938E-01      0.136970196701E-01
     2      0.378463536000E+07      0.397800000000E+34      0.144902933364E+14     -0.371863266151E+13     -0.246826171450E+06     -0.961804671515E+06     -0.638400146114E-01      0.163832130885E-01
     2      0.441535536000E+07      0.397800000000E+34      0.143219707143E+14     -0.432182860731E+13     -0.286863416284E+06     -0.950632175936E+06     -0.630983420192E-01      0.190406910509E-01
     2      0.504607536000E+07      0.397800000000E+34      0.141285505922E+14     -0.491745165101E+13     -0.326397947158E+06     -0.937793831682E+06     -0.622460966669E-01      0.216647963163E-01
     2      0.567679536000E+07      0.397800000000E+34      0.139103719283E+14     -0.550445804866E+13     -0.365360484274E+06     -0.923312140415E+06     -0.612847721191E-01      0.242509300895E-01
     2      0.630751536000E+07      0.397800000000E+34      0.136678170676E+14     -0.608181915854E+13     -0.403682750270E+06     -0.907212483808E+06     -0.602160531435E-01      0.267945600857E-01
     2      0.693823536000E+07      0.397800000000E+34      0.134013110716E+14     -0.664852324388E+13     -0.441297589902E+06     -0.889523079080E+06     -0.590418127636E-01      0.292912284793E-01
     2      0.756895536000E+07      0.397800000000E+34      0.131113209730E+14     -0.720357724603E+13     -0.478139087765E+06     -0.870274929564E+06     -0.577641089804E-01      0.317365597216E-01
     2      0.819967536000E+07      0.397800000000E+34      0.127983549577E+14     -0.774600852479E+13     -0.514142683846E+06     -0.849501770385E+06     -0.563851811702E-01      0.341262682164E-01
     2      0.883039536000E+07      0.397800000000E+34      0.124629614738E+14     -0.827486656303E+13     -0.549245286697E+06     -0.827240009347E+06     -0.549074461632E-01      0.364561658376E-01
     2      0.946111536000E+07      0.397800000000E+34      0.121057282705E+14     -0.878922463258E+13     -0.583385384046E+06     -0.803528663132E+06     -0.533334940102E-01      0.387221692759E-01
     2      0.100918353600E+08      0.397800000000E+34      0.117272813676E+14     -0.928818141834E+13     -0.616503150632E+06     -0.778409288922E+06     -0.516660834455E-01      0.409203072029E-01
     2      0.107225553600E+08      0.397800000000E+34      0.113282839589E+14     -0.977086259791E+13     -0.648540553091E+06     -0.751925911563E+06     -0.499081370531E-01      0.430467272391E-01
     2      0.113532753600E+08      0.397800000000E+34      0.109094352490E+14     -0.102364223739E+14     -0.679441451698E+06     -0.724124946399E+06     -0.480627361448E-01      0.450977027128E-01
     2      0.119839953600E+08      0.397800000000E+34      0.104714692284E+14     -0.106840449562E+14     -0.709151698794E+06     -0.695055117915E+06     -0.461331153599E-01      0.470696392001E-01
     2      0.126147153600E+08      0.397800000000E+34      0.100151533866E+14     -0.111129459919E+14     -0.737619233720E+06     -0.664767374323E+06     -0.441226569944E-01      0.489590808315E-01
     2      0.132454353600E+08      0.397800000000E+34      0.954128736694E+13     -0.115223739394E+14     -0.764794174088E+06     -0.633314798248E+06     -0.420348850713E-01      0.507627163573E-01
     2      0.138761553600E+08      0.397800000000E+34      0.905070156475E+13     -0.119116113861E+14     -0.790628903237E+06     -0.600752513670E+06     -0.398734591618E-01      0.524773849579E-01
     2      0.145068753600E+08      0.397800000000E+34      0.854425567211E+13     -0.122799763051E+14     -0.815078153719E+06     -0.567137589279E+06     -0.376421679670E-01      0.541000817914E-01
     2      0.151375953600E+08      0.397800000000E+34      0.802283717069E+13     -0.126268232509E+14     -0.838099086655E+06     -0.532528938426E+06     -0.353449226744E-01      0.556279632667E-01
     2      0.157683153600E+08      0.397800000000E+34      0.748735977618E+13     -0.129515444900E+14     -0.859651366846E+06     -0.496987215824E+06     -0.329857500968E-01      0.570583520340E-01
     2      0.163990353600E+08      0.397800000000E+34      0.693876183663E+13     -0.132535710662E+14     -0.879697233476E+06     -0.460574711202E+06     -0.305687856094E-01      0.583887416837E-01
     2      0.170297553600E+08      0.397800000000E+34      0.637800468763E+13     -0.135323737974E+14     -0.898201566313E+06     -0.423355240090E+06     -0.280982658957E-01      0.596168011444E-01
     2      0.176604753600E+08      0.397800000000E+34      0.580607096719E+13     -0.137874642029E+14     -0.915131947272E+06     -0.385394031920E+06     -0.255785215141E-01      0.607403787743E-01
     2      0.182911953600E+08      0.397800000000E+34      0.522396289329E+13     -0.140183953589E+14     -0.930458717234E+06     -0.346757615651E+06     -0.230139693008E-01      0.617575061361E-01
     2      0.189219153600E+08      0.397800000000E+34      0.463270050709E+13     -0.142247626822E+14     -0.944155028031E+06     -0.307513703113E+06     -0.204091046202E-01      0.626664014509E-01
     2      0.195526353600E+08      0.397800000000E+34      0.403331988492E+13     -0.144062046383E+14     -0.956196889496E+06     -0.267731070276E+06     -0.177684934770E-01      0.634654727242E-01
     2      0.201833553600E+08      0.397800000000E+34      0.342687132217E+13     -0.145624033748E+14     -0.966563211497E+06     -0.227479436648E+06     -0.150967645049E-01      0.641533205383E-01
     2      0.208140753600E+08      0.397800000000E+34      0.281441749226E+13     -0.146930852783E+14     -0.975235840884E+06     -0.186829343024E+06     -0.123986008440E-01      0.647287405063E-01
     2      0.214447953600E+08      0.397800000000E+34      0.219703158393E+13     -0.147980214532E+14     -0.982199593281E+06     -0.145852027792E+06     -0.967873192370E-02      0.651907253833E-01
     2      0.220755153600E+08      0.397800000000E+34      0.157579542013E+13     -0.148770281225E+14     -0.987442279671E+06     -0.104619302019E+06     -0.694192516315E-02      0.655384668319E-01
     2      0.227062353600E+08      0.397800000000E+34      0.951797561786E+12     -0.149299669493E+14     -0.990954727722E+06     -0.632034235279E+05     -0.419297760574E-02      0.657713568370E-01
     2      0.233369553600E+08      0.397800000000E+34      0.326131399768E+12     -0.149567452788E+14     -0.992730797823E+06     -0.216769701979E+05     -0.143670750127E-02      0.658889887694E-01
     2      0.239676753600E+08      0.397800000000E+34     -0.300106761540E+12     -0.149573162999E+14     -0.992767393790E+06      0.198872872946E+05      0.132205414886E-02      0.658911580953E-01
     2      0.245983953600E+08      0.397800000000E+34     -0.925819625783E+12     -0.149316791268E+14     -0.991064468246E+06      0.614165130735E+05      0.407847206874E-02      0.657778627306E-01
     2      0.252291153600E+08      0.397800000000E+34     -0.154991082786E+13     -0.148798787996E+14     -0.987625022635E+06      0.102837933770E+06      0.682771519228E-02      0.655493030395E-01
     2      0.258598353600E+08      0.397800000000E+34     -0.217128685547E+13     -0.148020062049E+14     -0.982455101898E+06      0.144078966115E+06      0.956496513986E-02      0.652058814770E-01
     2      0.264905553600E+08      0.397800000000E+34     -0.278885896564E+13     -0.146981979157E+14     -0.975563783805E+06      0.185067344201E+06      0.122854246724E-01      0.647482018767E-01
     2      0.271212753600E+08      0.397800000000E+34     -0.340154509283E+13     -0.145686359510E+14     -0.966963162965E+06      0.225731246170E+06      0.149843261078E-01      0.641770683848E-01
     2      0.277519953600E+08      0.397800000000E+34     -0.400827174526E+13     -0.144135474566E+14     -0.956668329544E+06      0.265999420136E+06      0.176569396853E-01      0.634934840417E-01
     2      0.283827153600E+08      0.397800000000E+34     -0.460797588620E+13     -0.142332043055E+14     -0.944697342730E+06      0.305801309084E+06      0.202985818623E-01      0.626986490147E-01
     2      0.290134353600E+08      0.397800000000E+34     -0.519960679686E+13     -0.140279226209E+14     -0.931071198985E+06      0.345067174557E+06      0.229046235300E-01      0.617939584841E-01
     2      0.296441553600E+08      0.397800000000E+34     -0.578212791760E+13     -0.137980622214E+14     -0.915813795151E+06      0.383728218900E+06      0.254704981325E-01      0.607810001870E-01
     2      0.302748753600E+08      0.397800000000E+34     -0.635451866434E+13     -0.135440259893E+14     -0.898951886465E+06      0.421716705846E+06      0.279917096756E-01      0.596615516228E-01
     2      0.309055953600E+08      0.397800000000E+34     -0.691577621678E+13     -0.132662591638E+14     -0.880515039561E+06      0.458966079230E+06      0.304638406109E-01      0.584375769257E-01
     2      0.315363153600E+08      0.397800000000E+34     -0.746491727557E+13     -0.129652485597E+14     -0.860535580544E+06      0.495411079636E+06      0.328825595818E-01      0.571112234094E-01
     2      0.321670353600E+08      0.397800000000E+34     -0.800097978507E+13     -0.126415217134E+14     -0.839048538228E+06      0.530987858757E+06      0.352436290168E-01      0.556848177904E-01
     2      0.327977553600E+08      0.397800000000E+34     -0.852302461890E+13     -0.122956459575E+14     -0.816091582630E+06      0.565634091274E+06      0.375429125583E-01      0.541608620966E-01
     2      0.334284753600E+08      0.397800000000E+34     -0.903013722517E+13     -0.119282274255E+14     -0.791704958837E+06      0.599289084058E+06      0.397763823119E-01      0.525420292682E-01
     2      0.340591953600E+08      0.397800000000E+34     -0.952142922859E+13     -0.115399099889E+14     -0.765931416366E+06      0.631893882504E+06      0.419401259055E-01      0.508311584590E-01
     2      0.346899153600E+08      0.397800000000E+34     -0.999603998666E+13     -0.111313741279E+14     -0.738816134124E+06      0.663391373803E+06      0.440303533439E-01      0.490312500460E-01
     2      0.353206353600E+08      0.397800000000E+34     -0.104531380972E+14     -0.107033357378E+14     -0.710406641121E+06      0.693726386987E+06      0.460434036487E-01      0.471454603569E-01
     2      0.359513553600E+08      0.397800000000E+34     -0.108919228543E+14     -0.102565448740E+14     -0.680752733063E+06      0.722845789551E+06      0.479757512698E-01      0.451770961238E-01
     2      0.365820753600E+08      0.397800000000E+34     -0.113116256512E+14     -0.979178443647E+13     -0.649906384975E+06      0.750698580503E+06      0.498240122595E-01      0.431296086743E-01
     2      0.372127953599E+08      0.397800000000E+34     -0.117115113255E+14     -0.930986879706E+13     -0.617921660011E+06      0.777235979661E+06      0.515849501968E-01      0.410065878681E-01
     2      0.378435153599E+08      0.397800000000E+34     -0.120908794470E+14     -0.881164237182E+13     -0.584854614604E+06      0.802411513058E+06      0.532554818517E-01      0.388117557927E-01
     2      0.384742353599E+08      0.397800000000E+34     -0.124490655441E+14     -0.829797814040E+13     -0.550763200130E+06      0.826181094287E+06      0.548326825804E-01      0.365489602267E-01
     2      0.391049553599E+08      0.397800000000E+34     -0.127854422668E+14     -0.776977611571E+13     -0.515707161262E+06      0.848503101664E+06      0.563137914413E-01      0.342221678839E-01
     2      0.397356753599E+08      0.397800000000E+34     -0.130994204853E+14     -0.722796176617E+13     -0.479747931175E+06      0.869338451052E+06      0.576962160232E-01      0.318354574492E-01
     2      0.403663953599E+08      0.397800000000E+34     -0.133904503205E+14     -0.667348439339E+13     -0.442948523813E+06      0.888650664244E+06      0.589775369766E-01      0.293930124195E-01
     2      0.409971153599E+08      0.397800000000E+34     -0.136580221073E+14     -0.610731546828E+13     -0.405373423384E+06      0.906405932758E+06      0.601555122416E-01      0.268991137611E-01
     2      0.416278353599E+08      0.397800000000E+34     -0.139016672854E+14     -0.553044692826E+13     -0.367088471287E+06      0.922573176960E+06      0.612280809633E-01      0.243581323977E-01
     2      0.422585553599E+08      0.397800000000E+34     -0.141209592198E+14     -0.494388943875E+13     -0.328160750676E+06      0.937124100388E+06      0.621933670897E-01      0.217745215413E-01
     2      0.428892753599E+08      0.397800000000E+34     -0.143155139468E+14     -0.434867062197E+13     -0.288658468850E+06      0.950033239198E+06      0.630496826441E-01      0.191528088799E-01
     2      0.435199953599E+08      0.397800000000E+34     -0.144849908451E+14     -0.374583325601E+13     -0.248650837685E+06      0.961278006643E+06      0.637955306678E-01      0.164975886362E-01
     2      0.441507153599E+08      0.397800000000E+34     -0.146290932317E+14     -0.313643344751E+13     -0.208207952314E+06      0.970838732503E+06      0.644296078273E-01      0.138135135103E-01
     2      0.447814353599E+08      0.397800000000E+34     -0.147475688803E+14     -0.252153878109E+13     -0.167400668275E+06      0.978698697401E+06      0.649508066813E-01      0.111052865214E-01
     2      0.454121553599E+08      0.397800000000E+34     -0.148402104615E+14     -0.190222644870E+13     -0.126300477332E+06      0.984844161943E+06      0.653582176046E-01      0.837765276237E-02
     2      0.460428753599E+08      0.397800000000E+34     -0.149068559050E+14     -0.127958136227E+13     -0.849793821903E+05      0.989264390642E+06      0.656511303646E-01      0.563539108189E-02
     2      0.466735953599E+08      0.397800000000E+34     -0.149473886819E+14     -0.654694252954E+12     -0.435097703339E+05      0.991951670566E+06      0.658290353478E-01      0.288330570891E-02
     2      0.473043153599E+08      0.397800000000E+34     -0.149617380074E+14     -0.286597602484E+11     -0.196428719530E+04      0.992901324696E+06      0.658916244354E-01      0.126217833634E-03
     2      0.479350353599E+08      0.397800000000E+34     -0.149498789638E+14      0.597425485650E+12      0.395842911144E+05      0.992111719963E+06      0.658387915251E-01     -0.263104283965E-02
     2      0.485657553599E+08      0.397800000000E+34     -0.149118325423E+14      0.122246478484E+13      0.810631852926E+05      0.989584269950E+06      0.656706326990E-01     -0.538364655350E-02
     2      0.491964753599E+08      0.397800000000E+34     -0.148476656049E+14      0.184536328876E+13      0.122399740327E+06      0.985323432259E+06      0.653874460374E-01     -0.812677195692E-02
     2      0.498271953599E+08      0.397800000000E+34     -0.147574907660E+14      0.246502991787E+13      0.163521552749E+06      0.979336700548E+06      0.649897310794E-01     -0.108556145489E-01
     2      0.504579153599E+08      0.397800000000E+34     -0.146414661939E+14      0.308037927267E+13      0.204356597432E+06      0.971634591246E+06      0.644781879294E-01     -0.135653950913E-01
     2      0.510886353599E+08      0.397800000000E+34     -0.144997953320E+14      0.369033353460E+13      0.244833353725E+06      0.962230624983E+06      0.638537160144E-01     -0.162513679760E-01
     2      0.517193553599E+08      0.397800000000E+34     -0.143327265412E+14      0.429382435366E+13      0.284880930676E+06      0.951141302754E+06      0.631174124909E-01     -0.189088295318E-01
     2      0.523500753599E+08      0.397800000000E+34     -0.141405526639E+14      0.488979471928E+13      0.324429191160E+06      0.938386076870E+06      0.622705703070E-01     -0.215331262569E-01
     2      0.529807953599E+08      0.397800000000E+34     -0.139236105093E+14      0.547720081125E+13      0.363408874664E+06      0.923987316745E+06      0.613146759220E-01     -0.241196629623E-01
     2      0.536115153599E+08      0.397800000000E+34     -0.136822802623E+14      0.605501382750E+13      0.401751718528E+06      0.907970269576E+06      0.602514066866E-01     -0.266639108117E-01
     2      0.542422353599E+08      0.397800000000E+34     -0.134169848167E+14      0.662222178543E+13      0.439390577437E+06      0.890363015987E+06      0.590826278916E-01     -0.291614152441E-01
     2      0.548729553599E+08      0.397800000000E+34     -0.131281890330E+14      0.717783129372E+13      0.476259540935E+06      0.871196420722E+06      0.578103894857E-01     -0.316078037657E-01
     2      0.555036753599E+08      0.397800000000E+34     -0.128163989230E+14      0.772086929153E+13      0.512294048778E+06      0.850504078466E+06      0.564369224731E-01     -0.339987935962E-01
     2      0.561343953599E+08      0.397800000000E+34     -0.124821607629E+14      0.825038475199E+13      0.547431003909E+06      0.828322254886E+06      0.549646349929E-01     -0.363301991584E-01
     2      0.567651153599E+08      0.397800000000E+34     -0.121260601350E+14      0.876545034701E+13      0.581608882861E+06      0.804689823015E+06      0.533961080911E-01     -0.385979393954E-01
     2      0.573958353599E+08      0.397800000000E+34     -0.117487209014E+14      0.926516407055E+13      0.614767843405E+06      0.779648195063E+06      0.517340911893E-01     -0.407980449050E-01
     2      0.580265553599E+08      0.397800000000E+34     -0.113508041102E+14      0.974865081750E+13      0.646849829239E+06      0.753241249803E+06      0.499814972602E-01     -0.429266648771E-01
     2      0.586572753599E+08      0.397800000000E+34     -0.109330068375E+14      0.102150639153E+14      0.677798671549E+06      0.725515255635E+06      0.481413977183E-01     -0.449800738237E-01
     2      0.592879953599E+08      0.397800000000E+34     -0.104960609650E+14      0.106635866059E+14      0.707560187257E+06      0.696518789483E+06      0.462170170335E-01     -0.469546780882E-01
     2      0.599187153599E+08      0.397800000000E+34     -0.100407318979E+14      0.110934334750E+14      0.736082273788E+06      0.666302651651E+06      0.442117270780E-01     -0.488470221237E-01
     2      0.605494353599E+08      0.397800000000E+34     -0.956781722388E+13      0.115038518266E+14      0.763315000189E+06      0.634919776804E+06      0.421290412166E-01     -0.506537945294E-01
     2      0.611801553599E+08      0.397800000000E+34     -0.907814531544E+13      0.118941230002E+14      0.789210694446E+06      0.602425141212E+06      0.399726081503E-01     -0.523718338337E-01
     2      0.618108753599E+08      0.397800000000E+34     -0.857257387875E+13      0.122635636282E+14      0.813724026840E+06      0.568875666431E+06      0.377462055237E-01     -0.539981340157E-01
     2      0.624415953599E+08      0.397800000000E+34     -0.805198845112E+13      0.126115268317E+14      0.836812089196E+06      0.534330119592E+06      0.354537333085E-01     -0.555298497529E-01
     2      0.630723153599E+08      0.397800000000E+34     -0.751730084984E+13      0.129374033520E+14      0.858434469903E+06      0.498849010465E+06      0.330992069734E-01     -0.569643013895E-01
     2      0.637030353599E+08      0.397800000000E+34     -0.696944757498E+13      0.132406226168E+14      0.878553324545E+06      0.462494485474E+06      0.306867504532E-01     -0.582989796128E-01
     2      0.643337553599E+08      0.397800000000E+34     -0.640938816920E+13      0.135206537382E+14      0.897133442056E+06      0.425330218868E+06      0.282205889290E-01     -0.595315498332E-01
     2      0.649644753599E+08      0.397800000000E+34     -0.583810353713E+13      0.137770064410E+14      0.914142306247E+06      0.387421301218E+06      0.257050414322E-01     -0.606598562573E-01
     2      0.655951953599E+08      0.397800000000E+34     -0.525659422755E+13      0.140092319209E+14      0.929550152632E+06      0.348834125442E+06      0.231445132855E-01     -0.616819256494E-01
     2      0.662259153599E+08      0.397800000000E+34     -0.466587868116E+13      0.142169236287E+14      0.943330020427E+06      0.309636270564E+06      0.205434883934E-01     -0.625959707730E-01
     2      0.668566353599E+08      0.397800000000E+34     -0.406699144713E+13      0.143997179815E+14      0.955457799648E+06      0.269896383397E+06      0.179065213965E-01     -0.634003935074E-01
     2      0.674873553599E+08      0.397800000000E+34     -0.346098137150E+13      0.145572949983E+14      0.965912273222E+06      0.229684058373E+06      0.152382297025E-01     -0.640937876344E-01
     2      0.681180753599E+08      0.397800000000E+34     -0.284890976066E+13      0.146893788597E+14      0.974675154030E+06      0.189069715712E+06      0.125432854082E-01     -0.646749412885E-01
     2      0.687487953599E+08      0.397800000000E+34     -0.223184852295E+13      0.147957383894E+14      0.981731116833E+06      0.148124478156E+06      0.982640712683E-02     -0.651428390686E-01
     2      0.693795153599E+08      0.397800000000E+34     -0.161087829195E+13      0.148761874586E+14      0.987067825013E+06      0.106920046485E+06      0.709235173422E-02     -0.654966638063E-01
     2      0.700102353599E+08      0.397800000000E+34     -0.987086534343E+12      0.149305853108E+14      0.990675952083E+06      0.655285740149E+05      0.434590604899E-02     -0.657357979871E-01
     2      0.706409553599E+08      0.397800000000E+34     -0.361565646019E+12      0.149588368075E+14      0.992549197942E+06      0.240225403185E+05      0.159187846058E-02     -0.658598248243E-01
     2      0.712716753599E+08      0.397800000000E+34      0.264588960468E+12      0.149608925942E+14      0.992684299825E+06     -0.175253756244E+05     -0.116490947990E-02     -0.658685289811E-01
     2      0.719023953599E+08      0.397800000000E+34      0.890280773677E+12      0.149367491857E+14      0.991081037950E+06     -0.590424226211E+05     -0.391963149144E-02     -0.657618969420E-01
     2      0.725331153599E+08      0.397800000000E+34      0.151441410292E+13      0.148864489719E+14      0.987742235842E+06     -0.100455904583E+06     -0.666746500297E-02     -0.655401170307E-01
     2      0.731638353599E+08      0.397800000000E+34      0.213589599646E+13      0.148100801428E+14      0.982673755335E+06     -0.141693307742E+06     -0.940359958634E-02     -0.652035790764E-01
     2      0.737945553599E+08      0.397800000000E+34      0.275363815483E+13      0.147077765334E+14      0.975884486257E+06     -0.182682427549E+06     -0.121232453681E-01     -0.647528737283E-01
     2      0.744252753599E+08      0.397800000000E+34      0.336655883605E+13      0.145797173890E+14      0.967386330823E+06     -0.223351495024E+06     -0.148216414050E-01     -0.641887914185E-01
     2      0.750559953599E+08      0.397800000000E+34      0.397358474924E+13      0.144261270506E+14      0.957194182768E+06     -0.263629302344E+06     -0.174940640090E-01     -0.635123209776E-01
     2      0.756867153599E+08      0.397800000000E+34      0.457365293353E+13      0.142472745618E+14      0.945325901232E+06     -0.303445327455E+06     -0.201358350075E-01     -0.627246479023E-01
     2      0.763174353599E+08      0.397800000000E+34      0.516571261880E+13      0.140434731973E+14      0.931802279480E+06     -0.342729857470E+06     -0.227423299232E-01     -0.618271522807E-01
     2      0.769481553599E+08      0.397800000000E+34      0.574872706504E+13      0.138150799141E+14      0.916647008471E+06     -0.381414110661E+06     -0.253089860609E-01     -0.608214063775E-01
     2      0.775788753599E+08      0.397800000000E+34      0.632167537722E+13      0.135624947257E+14      0.899886635378E+06     -0.419430356823E+06     -0.278313104869E-01     -0.597091718833E-01
     2      0.782095953599E+08      0.397800000000E+34      0.688355429235E+13      0.132861600022E+14      0.881550517099E+06     -0.456712035789E+06     -0.303048878852E-01     -0.584923968334E-01
     2      0.788403153599E+08      0.397800000000E+34      0.743337993565E+13      0.129865596947E+14      0.861670768864E+06     -0.493193873906E+06     -0.327253882800E-01     -0.571732122010E-01
     2      0.794710353599E+08      0.397800000000E+34      0.797018954289E+13      0.126642184884E+14      0.840282208013E+06     -0.528811998261E+06     -0.350885746079E-01     -0.557539281708E-01
     2      0.801017553599E+08      0.397800000000E+34      0.849304314564E+13      0.123197008834E+14      0.817422293049E+06     -0.563504048458E+06     -0.373903101290E-01     -0.542370300994E-01
     2      0.807324753599E+08      0.397800000000E+34      0.900102521671E+13      0.119536102061E+14      0.793131058072E+06     -0.597209285745E+06     -0.396265656628E-01     -0.526251741702E-01
     2      0.813631953599E+08      0.397800000000E+34      0.949324627274E+13      0.115665875532E+14      0.767451042708E+06     -0.629868699308E+06     -0.417934266358E-01     -0.509211827485E-01
     2      0.819939153599E+08      0.397800000000E+34      0.996884443129E+13      0.111593106686E+14      0.740427217655E+06     -0.661425109552E+06     -0.438870999303E-01     -0.491280394475E-01
     2      0.826246353599E+08      0.397800000000E+34      0.104269869196E+14      0.107324927571E+14      0.712106905972E+06     -0.691823268167E+06     -0.459039205204E-01     -0.472488839113E-01
     2      0.832553553599E+08      0.397800000000E+34      0.108668715321E+14      0.102868812353E+14      0.682539700261E+06     -0.721009954826E+06     -0.478403578850E-01     -0.452870063258E-01
     2      0.838860753599E+08      0.397800000000E+34      0.112877280354E+14      0.982325642336E+13      0.651777375866E+06     -0.748934070337E+06     -0.496930221857E-01     -0.432458416656E-01
     2      0.845167953599E+08      0.397800000000E+34      0.116888195156E+14      0.934243017840E+13      0.619873800264E+06     -0.775546726078E+06     -0.514586702001E-01     -0.411289636884E-01
     2      0.851475153599E+08      0.397800000000E+34      0.120694436693E+14      0.884524447325E+13      0.586884838785E+06     -0.800801329582E+06     -0.531342109981E-01     -0.389400786852E-01
     2      0.857782353599E+08      0.397800000000E+34      0.124289340325E+14      0.833256992225E+13      0.552868256837E+06     -0.824653666088E+06     -0.547167113532E-01     -0.366830190001E-01
     2      0.864089553599E+08      0.397800000000E+34      0.127666611473E+14      0.780530425700E+13      0.517883618812E+06     -0.847061975952E+06     -0.562034008783E-01     -0.343617363279E-01
     2      0.870396753599E+08      0.397800000000E+34      0.130820336642E+14      0.726437075453E+13      0.481992183828E+06     -0.867987027750E+06     -0.575916768768E-01     -0.319802948033E-01
     2      0.876703953599E+08      0.397800000000E+34      0.133744993770E+14      0.671071662089E+13      0.445256798515E+06     -0.887392186971E+06     -0.588791089019E-01     -0.295428638929E-01
     2      0.883011153599E+08      0.397800000000E+34      0.136435461898E+14      0.614531133270E+13      0.407741787015E+06     -0.905243480159E+06     -0.600634430137E-01     -0.270537111026E-01
     2      0.889318353599E+08      0.397800000000E+34      0.138887030132E+14      0.556914493982E+13      0.369512838395E+06     -0.921509654404E+06     -0.611426057293E-01     -0.245171945127E-01
     2      0.895625553599E+08      0.397800000000E+34      0.141095405897E+14      0.498322633191E+13      0.330636891664E+06     -0.936162232078E+06     -0.621147076568E-01     -0.219377551542E-01
     2      0.901932753598E+08      0.397800000000E+34      0.143056722445E+14      0.438858147203E+13      0.291182018605E+06     -0.949175560707E+06     -0.629780468081E-01     -0.193199092391E-01
     2      0.908239953598E+08      0.397800000000E+34      0.144767545629E+14      0.378625160035E+13      0.251217304614E+06     -0.960526857908E+06     -0.637311115837E-01     -0.166682402591E-01
     2      0.914547153598E+08      0.397800000000E+34      0.146224879916E+14      0.317729141107E+13      0.210812727770E+06     -0.970196251302E+06     -0.643725834251E-01     -0.139873909653E-01
     2      0.920854353598E+08      0.397800000000E+34      0.147426173632E+14      0.256276720578E+13      0.170039036326E+06     -0.978166813333E+06     -0.649013391297E-01     -0.112820552440E-01
     2      0.927161553598E+08      0.397800000000E+34      0.148369323426E+14      0.194375502645E+13      0.128967624861E+06     -0.984424590934E+06     -0.653164528238E-01     -0.855696990150E-02
     2      0.933468753598E+08      0.397800000000E+34      0.149052677959E+14      0.132133877144E+13      0.876704092827E+05     -0.988958629992E+06     -0.656171975908E-01     -0.581690637409E-02
     2      0.939775953598E+08      0.397800000000E+34      0.149475040792E+14      0.696608297585E+12      0.462197009238E+05     -0.991760994555E+06     -0.658030467507E-01     -0.306666237588E-02
     2      0.946083153598E+08      0.397800000000E+34      0.149635672481E+14      0.706575119881E+11      0.468807993629E+04     -0.992826780764E+06     -0.658736747902E-01     -0.311053500080E-03
     2      0.952390353598E+08      0.397800000000E+34      0.149534291873E+14     -0.555417543429E+12     -0.368517317895E+05     -0.992154125474E+06     -0.658289579397E-01      0.244509521176E-02
     2      0.958697553598E+08      0.397800000000E+34      0.149171076602E+14     -0.118052061106E+13     -0.783269979574E+05     -0.989744209547E+06     -0.656689743980E-01      0.519695771797E-02
     2      0.965004753598E+08      0.397800000000E+34      0.148546662771E+14     -0.180355713719E+13     -0.119665095229E+06     -0.985601255826E+06     -0.653940042027E-01      0.793971542741E-02
     2      0.971311953598E+08      0.397800000000E+34      0.147662143846E+14     -0.242343618857E+13     -0.160793640394E+06     -0.979732521765E+06     -0.650045287473E-01      0.106685656380E-01
     2      0.977619153598E+08      0.397800000000E+34      0.146519068737E+14     -0.303907236270E+13     -0.201640617124E+06     -0.972148286764E+06     -0.645012299462E-01      0.133787299482E-01
     2      0.983926353598E+08      0.397800000000E+34      0.145119439087E+14     -0.364938768844E+13     -0.242134502090E+06     -0.962861834196E+06     -0.638849890470E-01      0.160654626265E-01
     2      0.990233553598E+08      0.397800000000E+34      0.143465705770E+14     -0.425331351365E+13     -0.282204390220E+06     -0.951889428178E+06     -0.631568850951E-01      0.187240589250E-01
     2      0.996540753598E+08      0.397800000000E+34      0.141560764594E+14     -0.484979237649E+13     -0.321780118876E+06     -0.939250285123E+06     -0.623181930503E-01      0.213498633211E-01
     2      0.100284795360E+09      0.397800000000E+34      0.139407951237E+14     -0.543777985717E+13     -0.360792390742E+06     -0.924966540111E+06     -0.613703815606E-01      0.239382776747E-01
     2      0.100915515360E+09      0.397800000000E+34      0.137011035399E+14     -0.601624640687E+13     -0.399172895194E+06     -0.909063208158E+06     -0.603151103961E-01      0.264847692847E-01
     2      0.101546235360E+09      0.397800000000E+34      0.134374214206E+14     -0.658417915062E+13     -0.436854427944E+06     -0.891568140428E+06     -0.591542275479E-01      0.289848788320E-01
     2      0.102176955360E+09      0.397800000000E+34      0.131502104858E+14     -0.714058366104E+13     -0.473771008759E+06     -0.872511975480E+06     -0.578897659965E-01      0.314342281944E-01
     2      0.102807675360E+09      0.397800000000E+34      0.128399736543E+14     -0.768448569974E+13     -0.509857997031E+06     -0.851928085631E+06     -0.565239401560E-01      0.338285281198E-01
     2      0.103438395360E+09      0.397800000000E+34      0.125072541628E+14     -0.821493292335E+13     -0.545052205005E+06     -0.829852518524E+06     -0.550591419997E-01      0.361635857445E-01
     2      0.104069115360E+09      0.397800000000E+34      0.121526346149E+14     -0.873099655131E+13     -0.579292008467E+06     -0.806323934006E+06     -0.534979368736E-01      0.384353119424E-01
     2      0.104699835360E+09      0.397800000000E+34      0.117767359605E+14     -0.923177299231E+13     -0.612517454697E+06     -0.781383536433E+06     -0.518430590067E-01      0.406397284937E-01
     2      0.105330555360E+09      0.397800000000E+34      0.113802164083E+14     -0.971638542663E+13     -0.644670367486E+06     -0.755075002511E+06     -0.500974067235E-01      0.427729750590E-01
     2      0.105961275360E+09      0.397800000000E+34      0.109637702733E+14     -0.101839853416E+14     -0.675694449058E+06     -0.727444404796E+06     -0.482640373692E-01      0.448313159476E-01
     2      0.106591995360E+09      0.397800000000E+34      0.105281267601E+14     -0.106337540177E+14     -0.705535378687E+06     -0.698540131005E+06     -0.463461619552E-01      0.468111466669E-01
     2      0.107222715360E+09      0.397800000000E+34      0.100740486868E+14     -0.110649039619E+14     -0.734140907866E+06     -0.668412799261E+06     -0.443471395345E-01      0.487090002429E-01
     2      0.107853435360E+09      0.397800000000E+34      0.960233114789E+13     -0.114766802868E+14     -0.761460951829E+06     -0.637115169426E+06     -0.422704713179E-01      0.505215532996E-01
     2      0.108484155360E+09      0.397800000000E+34      0.911380012241E+13     -0.118683620330E+14     -0.787447677302E+06     -0.604702050684E+06     -0.401197945391E-01      0.522456318861E-01
     2      0.109114875360E+09      0.397800000000E+34      0.860931102693E+13     -0.122392634307E+14     -0.812055586291E+06     -0.571230205523E+06     -0.378988760820E-01      0.538782170425E-01
     2      0.109745595360E+09      0.397800000000E+34      0.808974721742E+13     -0.125887351014E+14     -0.835241595790E+06     -0.536758250300E+06     -0.356116058795E-01      0.554164500945E-01
     2      0.110376315360E+09      0.397800000000E+34      0.755601844199E+13     -0.129161651942E+14     -0.856965113254E+06     -0.501346552547E+06     -0.332619900961E-01      0.568576376655E-01
     2      0.111007035360E+09      0.397800000000E+34      0.700905924751E+13     -0.132209804578E+14     -0.877188107699E+06     -0.465057125214E+06     -0.308541441062E-01      0.581992564002E-01
     2      0.111637755360E+09      0.397800000000E+34      0.644982734270E+13     -0.135026472437E+14     -0.895875176327E+06     -0.427953518017E+06     -0.283922852811E-01      0.594389573894E-01
     2      0.112268475360E+09      0.397800000000E+34      0.587930192073E+13     -0.137606724407E+14     -0.912993606532E+06     -0.390100706105E+06     -0.258807255953E-01      0.605745702884E-01
     2      0.112899195360E+09      0.397800000000E+34      0.529848194415E+13     -0.139946043382E+14     -0.928513433194E+06     -0.351564976211E+06     -0.233238640684E-01      0.616041071228E-01
     2      0.113529915360E+09      0.397800000000E+34      0.470838439516E+13     -0.142040334171E+14     -0.942407491159E+06     -0.312413810518E+06     -0.207261790519E-01      0.625257657734E-01
     2      0.114160635360E+09      0.397800000000E+34      0.411004249440E+13     -0.143885930663E+14     -0.954651462803E+06     -0.272715768419E+06     -0.180922203787E-01      0.633379331357E-01
     2      0.114791355360E+09      0.397800000000E+34      0.350450389125E+13     -0.145479602245E+14     -0.965223920616E+06     -0.232540366399E+06     -0.154266013853E-01      0.640391879470E-01
     2      0.115422075360E+09      0.397800000000E+34      0.289282882890E+13     -0.146818559456E+14     -0.974106364701E+06     -0.191957956226E+06     -0.127339908234E-01      0.646283032768E-01
     2      0.116052795360E+09      0.397800000000E+34      0.227608828737E+13     -0.147900458868E+14     -0.981283255161E+06     -0.151039601691E+06     -0.100191046738E-01      0.651042486763E-01
     2      0.116683515360E+09      0.397800000000E+34      0.165536210772E+13     -0.148723407182E+14     -0.986742039274E+06     -0.109856954097E+06     -0.728669787751E-02      0.654661919827E-01
     2      0.117314235360E+09      0.397800000000E+34      0.103173710080E+13     -0.149285964544E+14     -0.990473173451E+06     -0.684821267147E+05     -0.454155599826E-02      0.657135007752E-01
     2      0.117944955360E+09      0.397800000000E+34      0.406305143768E+12     -0.149587147053E+14     -0.992470139901E+06     -0.269875684373E+05     -0.178848683182E-02      0.658457434805E-01
     2      0.118575675360E+09      0.397800000000E+34     -0.219838732145E+12     -0.149626428486E+14     -0.992729458000E+06      0.145540631545E+05      0.967688024057E-03      0.658626901254E-01
     2      0.119206395360E+09      0.397800000000E+34     -0.845598259481E+12     -0.149403741207E+14     -0.991250690335E+06      0.560700290902E+05      0.372214162351E-02      0.657643127357E-01
     2      0.119837115360E+09      0.397800000000E+34     -0.146987785444E+13     -0.148919476282E+14     -0.988036443404E+06      0.974876364470E+05      0.647005013564E-02      0.655507853800E-01
     2      0.120467835360E+09      0.397800000000E+34     -0.209158453558E+13     -0.148174482786E+14     -0.983092362990E+06      0.138734365703E+06      0.920660130185E-02      0.652224838589E-01
     2      0.121098555360E+09      0.397800000000E+34     -0.270962983786E+13     -0.147170066309E+14     -0.976427124200E+06      0.179737997781E+06      0.119270028726E-01      0.647799850405E-01
     2      0.121729275360E+09      0.397800000000E+34     -0.332293171880E+13     -0.145907986661E+14     -0.968052416194E+06      0.220426740566E+06      0.146264910084E-01      0.642240658417E-01
     2      0.122359995360E+09      0.397800000000E+34     -0.393041645326E+13     -0.144390454784E+14     -0.957982921628E+06      0.260729354666E+06      0.173003386311E-01      0.635557018596E-01
     2      0.122990715360E+09      0.397800000000E+34     -0.453102051368E+13     -0.142620128870E+14     -0.946236290860E+06      0.300575278199E+06      0.199438637095E-01      0.627760656531E-01
     2      0.123621435360E+09      0.397800000000E+34     -0.512369243235E+13     -0.140600109699E+14     -0.932833110938E+06      0.339894750389E+06      0.225524374657E-01      0.618865246797E-01
     2      0.124252155360E+09      0.397800000000E+34     -0.570739464252E+13     -0.138333935199E+14     -0.917796869458E+06      0.378618933753E+06      0.251214924876E-01      0.608886388895E-01
     2      0.124882875360E+09      0.397800000000E+34     -0.628110529509E+13     -0.135825574242E+14     -0.901153913321E+06      0.416680034662E+06      0.276465307330E-01      0.597841579819E-01
     2      0.125513595360E+09      0.397800000000E+34     -0.684382004771E+13     -0.133079419688E+14     -0.882933402499E+06      0.454011422068E+06      0.301231314111E-01      0.585750183292E-01
     2      0.126144315360E+09      0.397800000000E+34     -0.739455382322E+13     -0.130100280678E+14     -0.863167258855E+06      0.490547744184E+06      0.325469587278E-01      0.572633395729E-01
     2      0.126775035360E+09      0.397800000000E+34     -0.793234253414E+13     -0.126893374207E+14     -0.841890110134E+06      0.526225042922E+06      0.349137694819E-01      0.558514208982E-01
     2      0.127405755360E+09      0.397800000000E+34     -0.845624477051E+13     -0.123464315979E+14     -0.819139229211E+06      0.560980865876E+06      0.372194204969E-01      0.543417369944E-01
     2      0.128036475360E+09      0.397800000000E+34     -0.896534344778E+13     -0.119819110565E+14     -0.794954468706E+06      0.594754375660E+06      0.394598758777E-01      0.527369337073E-01
     2      0.128667195360E+09      0.397800000000E+34     -0.945874741217E+13     -0.115964140878E+14     -0.769378191083E+06      0.627486456413E+06      0.416312140773E-01      0.510398233910E-01
     2      0.129297915360E+09      0.397800000000E+34     -0.993559300044E+13     -0.111906156985E+14     -0.742455194352E+06      0.659119817275E+06      0.437296347634E-01      0.492533799695E-01
     2      0.129928635360E+09      0.397800000000E+34     -0.103950455515E+14     -0.107652264285E+14     -0.714232633509E+06      0.689599092663E+06      0.457514654698E-01      0.473807337136E-01
     2      0.130559355360E+09      0.397800000000E+34     -0.108363008673E+14     -0.103209911053E+14     -0.684759937849E+06      0.718870939163E+06      0.476931680248E-01      0.454251657457E-01
     2      0.131190075360E+09      0.397800000000E+34     -0.112585866199E+14     -0.985868753921E+13     -0.654088724302E+06      0.746884128874E+06      0.495513447415E-01      0.433901022790E-01
     2      0.131820795360E+09      0.397800000000E+34     -0.116611637031E+14     -0.937912516048E+13     -0.622272706935E+06      0.773589639033E+06      0.513227443620E-01      0.412791086042E-01
     2      0.132451515360E+09      0.397800000000E+34     -0.120433275256E+14     -0.888314360136E+13     -0.589367602798E+06      0.798940737780E+06      0.530042677436E-01      0.390958828323E-01
     2      0.133082235360E+09      0.397800000000E+34     -0.124044092438E+14     -0.837161122513E+13     -0.555431034250E+06      0.822893065896E+06      0.545929732775E-01      0.368442494053E-01
     2      0.133712955360E+09      0.397800000000E+34     -0.127437769318E+14     -0.784542360497E+13     -0.520522427971E+06      0.845404714373E+06      0.560860820309E-01      0.345281523861E-01
     2      0.134343675360E+09      0.397800000000E+34     -0.130608366866E+14     -0.730550195523E+13     -0.484702910811E+06      0.866436297698E+06      0.574809826026E-01      0.321516485404E-01
     2      0.134974395360E+09      0.397800000000E+34     -0.133550336673E+14     -0.675279151790E+13     -0.448035202669E+06      0.885951022701E+06      0.587752356848E-01      0.297189002202E-01
     2      0.135605115360E+09      0.397800000000E+34     -0.136258530646E+14     -0.618825990700E+13     -0.410583506596E+06      0.903914752861E+06      0.599665783222E-01      0.272341680650E-01
     2      0.136235835360E+09      0.397800000000E+34     -0.138728210017E+14     -0.561289541399E+13     -0.372413396298E+06      0.920296067946E+06      0.610529278614E-01      0.247018035310E-01
     2      0.136866555360E+09      0.397800000000E+34     -0.140955053621E+14     -0.502770527697E+13     -0.333591701262E+06      0.935066318903E+06      0.620323855838E-01      0.221262412613E-01
     2      0.137497275360E+09      0.397800000000E+34     -0.142935165454E+14     -0.443371391681E+13     -0.294186389676E+06      0.948199677880E+06      0.629032400161E-01      0.195119913134E-01
     2      0.138127995360E+09      0.397800000000E+34     -0.144665081477E+14     -0.383196114334E+13     -0.254266449382E+06      0.959673183306E+06      0.636639699109E-01      0.168636312536E-01
     2      0.138758715360E+09      0.397800000000E+34     -0.146141775666E+14     -0.322350033455E+13     -0.213901767033E+06      0.969466779946E+06      0.643132468953E-01      0.141857981359E-01
     2      0.139389435360E+09      0.397800000000E+34     -0.147362665301E+14     -0.260939659229E+13     -0.173163005708E+06      0.977563353870E+06      0.648499377797E-01      0.114831803772E-01
     2      0.140020155360E+09      0.397800000000E+34     -0.148325615470E+14     -0.199072487745E+13     -0.132121481162E+06      0.983948762257E+06      0.652731065254E-01      0.876050954359E-02
     2      0.140650875360E+09      0.397800000000E+34     -0.149028942792E+14     -0.136856812794E+13     -0.908490369492E+05      0.988611858009E+06      0.655820158661E-01      0.602255206265E-02
     2      0.141281595360E+09      0.397800000000E+34     -0.149471418353E+14     -0.744015362938E+12     -0.494179186382E+05      0.991544509104E+06      0.657761285811E-01      0.327410087616E-02
     2      0.141912315360E+09      0.397800000000E+34     -0.149652269839E+14     -0.118159776410E+12     -0.790064732510E+04      0.992741612679E+06      0.658551084183E-01      0.519967047242E-03
     2      0.142543035360E+09      0.397800000000E+34     -0.149571182880E+14      0.507903176423E+12      0.336301073177E+05      0.992201103805E+06      0.658188206649E-01     -0.223502866264E-02
     2      0.143173755360E+09      0.397800000000E+34     -0.149228301577E+14      0.113307769656E+13      0.751016542439E+05      0.989923958944E+06      0.656673323656E-01     -0.498606423243E-02
     2      0.143804475360E+09      0.397800000000E+34     -0.148624228247E+14      0.175626955918E+13      0.116441408262E+06      0.985914194085E+06      0.654009121873E-01     -0.772832482107E-02
     2      0.144435195360E+09      0.397800000000E+34     -0.147760022344E+14      0.237638802875E+13      0.157577017066E+06      0.980178857553E+06      0.650200299309E-01     -0.104570111932E-01
     2      0.145065915360E+09      0.397800000000E+34     -0.146637198599E+14      0.299234776791E+13      0.198436487850E+06      0.972728017526E+06      0.645253556918E-01     -0.131673481164E-01
     2      0.145696635360E+09      0.397800000000E+34     -0.145257724351E+14      0.360307073683E+13      0.238948313282E+06      0.963574744252E+06      0.639177586696E-01     -0.158545927148E-01
     2      0.146327355360E+09      0.397800000000E+34     -0.143624016089E+14      0.420748807969E+13      0.279041596612E+06      0.952735087027E+06      0.631983056299E-01     -0.185140427650E-01
     2      0.146958075360E+09      0.397800000000E+34     -0.141738935214E+14      0.480454199504E+13      0.318646175710E+06      0.940228045960E+06      0.623682590206E-01     -0.211410449196E-01
     2      0.147588795360E+09      0.397800000000E+34     -0.139605783014E+14      0.539318758660E+13      0.357692745800E+06      0.926075538570E+06      0.614290747465E-01     -0.237310028443E-01
     2      0.148219515360E+09      0.397800000000E+34     -0.137228294875E+14      0.597239469154E+13      0.396112980688E+06      0.910302361294E+06      0.603823996057E-01     -0.262793852533E-01
     2      0.148850235360E+09      0.397800000000E+34     -0.134610633732E+14      0.654114968276E+13      0.433839652267E+06      0.892936145956E+06      0.592300683931E-01     -0.287817338302E-01
     2      0.149480955360E+09      0.397800000000E+34     -0.131757382768E+14      0.709845724221E+13      0.470806748091E+06      0.874007311274E+06      0.579741006748E-01     -0.312336710208E-01
     2      0.150111675360E+09      0.397800000000E+34     -0.128673537388E+14      0.764334210210E+13      0.506949586808E+06      0.853549009514E+06      0.566166972410E-01     -0.336309076822E-01
     2      0.150742395361E+09      0.397800000000E+34     -0.125364496458E+14      0.817485075091E+13      0.542204931269E+06      0.831597068344E+06      0.551602362419E-01     -0.359692505774E-01
     2      0.151373115361E+09      0.397800000000E+34     -0.121836052853E+14      0.869205310127E+13      0.576511099085E+06      0.808189928037E+06      0.536072690147E-01     -0.382446097010E-01
     2      0.152003835361E+09      0.397800000000E+34     -0.118094383306E+14      0.919404411676E+13      0.609808070469E+06      0.783368574091E+06      0.519605156081E-01     -0.404530054232E-01
     2      0.152634555361E+09      0.397800000000E+34     -0.114146037587E+14      0.967994539486E+13      0.642037593155E+06      0.757176465416E+06      0.502228600132E-01     -0.425905754399E-01
     2      0.153265275361E+09      0.397800000000E+34     -0.109997927039E+14      0.101489067032E+14      0.673143284225E+06      0.729659458195E+06      0.483973451079E-01     -0.446535815177E-01
     2      0.153895995361E+09      0.397800000000E+34     -0.105657312470E+14      0.106001074664E+14      0.703070728650E+06      0.700865725563E+06      0.464871673252E-01     -0.466384160204E-01
     2      0.154526715361E+09      0.397800000000E+34     -0.101131791441E+14      0.110327582013E+14      0.731767574394E+06      0.670845673239E+06      0.444956710533E-01     -0.485416082068E-01
     2      0.155157435361E+09      0.397800000000E+34     -0.964292849620E+13      0.114461018970E+14      0.759183623898E+06      0.639651851259E+06      0.424263427785E-01     -0.503598302890E-01
     2      0.155788155361E+09      0.397800000000E+34     -0.915580236301E+13      0.118394153388E+14      0.785270921792E+06      0.607338861972E+06      0.402828049803E-01     -0.520899032401E-01
     2      0.156418875361E+09      0.397800000000E+34     -0.865265332156E+13      0.122120103730E+14      0.809983838682E+06      0.573963264447E+06      0.380688097899E-01     -0.537288023412E-01
     2      0.157049595361E+09      0.397800000000E+34     -0.813436197412E+13      0.125632351093E+14      0.833279150864E+06      0.539583475474E+06      0.357882324231E-01     -0.552736624589E-01
     2      0.157680315361E+09      0.397800000000E+34     -0.760183540679E+13      0.128924750610E+14      0.855116115834E+06      0.504259667317E+06      0.334450643987E-01     -0.567217830430E-01
     2      0.158311035361E+09      0.397800000000E+34     -0.705600560191E+13      0.131991542189E+14      0.875456543446E+06      0.468053662409E+06      0.310434065553E-01     -0.580706328370E-01
     2      0.158941755361E+09      0.397800000000E+34     -0.649782780692E+13      0.134827360585E+14      0.894264862616E+06      0.431028825170E+06      0.285874618767E-01     -0.593178542923E-01
     2      0.159572475361E+09      0.397800000000E+34     -0.592827886272E+13      0.137427244773E+14      0.911508183433E+06      0.393249951130E+06      0.260815281413E-01     -0.604612676785E-01
     2      0.160203195361E+09      0.397800000000E+34     -0.534835549421E+13      0.139786646618E+14      0.927156354592E+06      0.354783153565E+06      0.235299904052E-01     -0.614988748835E-01
     2      0.160833915361E+09      0.397800000000E+34     -0.475907256614E+13      0.141901438830E+14      0.941182016031E+06      0.315695747829E+06      0.209373133348E-01     -0.624288628961E-01
     2      0.161464635361E+09      0.397800000000E+34     -0.416146130733E+13      0.143767922166E+14      0.953560646689E+06      0.276056133598E+06      0.183080334002E-01     -0.632496069650E-01
     2      0.162095355361E+09      0.397800000000E+34     -0.355656750629E+13      0.145382831899E+14      0.964270607297E+06      0.235933675217E+06      0.156467509445E-01     -0.639596734299E-01
     2      0.162726075361E+09      0.397800000000E+34     -0.294544968145E+13      0.146743343521E+14      0.973293178143E+06      0.195398580373E+06      0.129581221419E-01     -0.645578222175E-01
     2      0.163356795361E+09      0.397800000000E+34     -0.232917722917E+13      0.147847077673E+14      0.980612591716E+06      0.154521777299E+06      0.102468508588E-01     -0.650430090011E-01
     2      0.163987515361E+09      0.397800000000E+34     -0.170882855282E+13      0.148692104297E+14      0.986216060204E+06      0.113374790715E+06      0.751768043290E-02     -0.654143870174E-01
     2      0.164618235361E+09      0.397800000000E+34     -0.108548917606E+13      0.149276946013E+14      0.990093797780E+06      0.720296167490E+05      0.477538538274E-02     -0.656713085392E-01
     2      0.165248955361E+09      0.397800000000E+34     -0.460249843856E+12      0.149600580686E+14      0.992239037638E+06      0.305585970176E+05      0.202476306418E-02     -0.658133260003E-01
     2      0.165879675361E+09      0.397800000000E+34      0.165795385710E+12      0.149662443213E+14      0.992648043758E+06     -0.109657078755E+05     -0.729374712947E-03     -0.658401927712E-01
     2      0.166510395361E+09      0.397800000000E+34      0.791551055324E+12      0.149462426502E+14      0.991320117373E+06     -0.524706452299E+05     -0.348221009307E-02     -0.657518635844E-01
     2      0.167141115361E+09      0.397800000000E+34      0.141592222474E+13      0.149000881652E+14      0.988257598127E+06     -0.938835972922E+05     -0.622892759328E-02     -0.655484946086E-01
     2      0.167771835361E+09      0.397800000000E+34      0.203781638612E+13      0.148278617334E+14      0.983465859929E+06     -0.135132108237E+06     -0.896472251743E-02     -0.652304431703E-01
     2      0.168402555361E+09      0.397800000000E+34      0.265614537516E+13      0.147296898368E+14      0.976953301500E+06     -0.176144010862E+06     -0.116848093511E-01     -0.647982671260E-01
     2      0.169033275361E+09      0.397800000000E+34      0.326982727445E+13      0.146057443508E+14      0.968731331637E+06     -0.216847552775E+06     -0.143844301233E-01     -0.642527238836E-01
     2      0.169663995361E+09      0.397800000000E+34      0.387778830602E+13      0.144562422423E+14      0.958814349218E+06     -0.257171521857E+06     -0.170588627191E-01     -0.635947690758E-01
     2      0.170294715361E+09      0.397800000000E+34      0.447896470957E+13      0.142814451906E+14      0.947219717982E+06     -0.297045370775E+06     -0.197034291310E-01     -0.628255548878E-01
     2      0.170925435361E+09      0.397800000000E+34      0.507230460313E+13      0.140816591283E+14      0.933967736130E+06     -0.336399340338E+06     -0.223135036320E-01     -0.619464280419E-01
     2      0.171556155361E+09      0.397800000000E+34      0.565676982295E+13      0.138572337061E+14      0.919081600797E+06     -0.375164581466E+06     -0.248845208585E-01     -0.609589274431E-01
     2      0.172186875361E+09      0.397800000000E+34      0.623133773941E+13      0.136085616807E+14      0.902587367458E+06     -0.413273275576E+06     -0.274119837868E-01     -0.598647814885E-01
     2      0.172817595362E+09      0.397800000000E+34      0.679500304572E+13      0.133360782272E+14      0.884513904344E+06     -0.450658753166E+06     -0.298914715918E-01     -0.586659050471E-01
     2      0.173448315362E+09      0.397800000000E+34      0.734677951629E+13      0.130402601778E+14      0.864892841939E+06     -0.487255610384E+06     -0.323186473720E-01     -0.573643961129E-01
     2      0.174079035362E+09      0.397800000000E+34      0.788570173179E+13      0.127216251872E+14      0.843758517647E+06     -0.522999823391E+06     -0.346892657281E-01     -0.559625321400E-01
     2      0.174709755362E+09      0.397800000000E+34      0.841082676775E+13      0.123807308265E+14      0.821147915739E+06     -0.557828860314E+06     -0.369991801827E-01     -0.544627660623E-01
     2      0.175340475362E+09      0.397800000000E+34      0.892123584383E+13      0.120181736081E+14      0.797100602661E+06     -0.591681790590E+06     -0.392443504272E-01     -0.528677220090E-01
     2      0.175971195362E+09      0.397800000000E+34      0.941603593092E+13      0.116345879415E+14      0.771658657840E+06     -0.624499391509E+06     -0.414208493835E-01     -0.511801907195E-01
     2      0.176601915362E+09      0.397800000000E+34      0.989436131311E+13      0.112306450239E+14      0.744866600089E+06     -0.656224251781E+06     -0.435248700693E-01     -0.494031246678E-01
     2      0.177232635362E+09      0.397800000000E+34      0.103553751019E+14      0.108070516652E+14      0.716771309754E+06     -0.686800871930E+06     -0.455527322525E-01     -0.475396329052E-01
     2      0.177863355362E+09      0.397800000000E+34      0.107982707003E+14      0.103645490518E+14      0.687421946729E+06     -0.716175761358E+06     -0.475008888859E-01     -0.455929756279E-01
     2      0.178494075362E+09      0.397800000000E+34      0.112222732132E+14      0.990391144996E+13      0.656869864486E+06     -0.744297531886E+06     -0.493659323093E-01     -0.435665584813E-01
     2      0.179124795362E+09      0.397800000000E+34      0.116266408033E+14      0.942594485098E+13      0.625168520269E+06     -0.771116987637E+06     -0.511446002088E-01     -0.414639266103E-01
     2      0.179755515362E+09      0.397800000000E+34      0.120106659885E+14      0.893148556130E+13      0.592373381610E+06     -0.796587211075E+06     -0.528337813217E-01     -0.392887584649E-01
     2      0.180386235362E+09      0.397800000000E+34      0.123736768792E+14      0.842139873938E+13      0.558541829330E+06     -0.820663645074E+06     -0.544305208796E-01     -0.370448593732E-01
     2      0.181016955362E+09      0.397800000000E+34      0.127150383541E+14      0.789657688218E+13      0.523733057188E+06     -0.843304170856E+06     -0.559320257770E-01     -0.347361548918E-01
     2      0.181647675362E+09      0.397800000000E+34      0.130341531709E+14      0.735793826375E+13      0.488007968362E+06     -0.864469181668E+06     -0.573356694590E-01     -0.323666839462E-01
     2      0.182278395362E+09      0.397800000000E+34      0.133304630110E+14      0.680642532884E+13      0.451429068940E+06     -0.884121652074E+06     -0.586389965177E-01     -0.299405917729E-01
     2      0.182909115362E+09      0.397800000000E+34      0.136034494562E+14      0.624300304406E+13      0.414060358601E+06     -0.902227202736E+06     -0.598397269904E-01     -0.274621226741E-01
     2      0.183539835362E+09      0.397800000000E+34      0.138526348956E+14      0.566865720983E+13      0.375967218686E+06     -0.918754160560E+06     -0.609357603510E-01     -0.249356126003E-01
     2      0.184170555362E+09      0.397800000000E+34      0.140775833613E+14      0.508439273568E+13      0.337216297845E+06     -0.933673614127E+06     -0.619251791894E-01     -0.223654815706E-01
     2      0.184801275362E+09      0.397800000000E+34      0.142779012909E+14      0.449123188229E+13      0.297875395469E+06     -0.946959464283E+06     -0.628062525696E-01     -0.197562259467E-01
     2      0.185431995362E+09      0.397800000000E+34      0.144532382159E+14      0.389021247301E+13      0.258013343101E+06     -0.958588469822E+06     -0.635774390634E-01     -0.171124105720E-01
     2      0.186062715362E+09      0.397800000000E+34      0.146032873752E+14      0.328238607823E+13      0.217699884044E+06     -0.968540288171E+06     -0.642373894525E-01     -0.144386607908E-01
     2      0.186693435362E+09      0.397800000000E+34      0.147277862514E+14      0.266881617569E+13      0.177005551362E+06     -0.976797510998E+06     -0.647849490954E-01     -0.117396543605E-01
     2      0.187324155362E+09      0.397800000000E+34      0.148265170304E+14      0.205057628986E+13      0.136001544504E+06     -0.983345694704E+06     -0.652191599531E-01     -0.902011327205E-02
     2      0.187954875362E+09      0.397800000000E+34      0.148993069823E+14      0.142874811383E+13      0.947596047524E+05     -0.988173385720E+06     -0.655392622728E-01     -0.628479549186E-02
     2      0.188585595362E+09      0.397800000000E+34      0.149460287638E+14      0.804419616808E+12      0.533518897194E+05     -0.991272140574E+06     -0.657446959241E-01     -0.353848664005E-02
     2      0.189216315362E+09      0.397800000000E+34      0.149666006408E+14      0.178683140632E+12      0.118508471139E+05     -0.992636540702E+06     -0.658351013859E-01     -0.785991619725E-03
     2      0.189847035362E+09      0.397800000000E+34      0.149609866317E+14     -0.447366511342E+12     -0.296709120073E+05     -0.992264201958E+06     -0.658103203833E-01      0.196787378833E-02
     2      0.190477755362E+09      0.397800000000E+34      0.149291965703E+14     -0.107263398973E+13     -0.711407402776E+05     -0.990155778823E+06     -0.656703961717E-01      0.471829135088E-02
     2      0.191108475362E+09      0.397800000000E+34      0.148712860884E+14     -0.169602531559E+13     -0.112486081127E+06     -0.986314963291E+06     -0.654155734692E-01      0.746044881243E-02
     2      0.191739195362E+09      0.397800000000E+34      0.147873565189E+14     -0.231644979444E+13     -0.153634595733E+06     -0.980748478446E+06     -0.650462980355E-01      0.101895483159E-01
     2      0.192369915362E+09      0.397800000000E+34      0.146775547183E+14     -0.293282192470E+13     -0.194514289601E+06     -0.973466066733E+06     -0.645632158997E-01      0.129008147988E-01
     2      0.193000635362E+09      0.397800000000E+34      0.145420728099E+14     -0.354406329687E+13     -0.235053638535E+06     -0.964480472943E+06     -0.639671722371E-01      0.155895043502E-01
     2      0.193631355362E+09      0.397800000000E+34      0.143811478474E+14     -0.414910448052E+13     -0.275181713804E+06     -0.953807421943E+06     -0.632592098970E-01      0.182509125143E-01
     2      0.194262075362E+09      0.397800000000E+34      0.141950614005E+14     -0.474688689543E+13     -0.314828306264E+06     -0.941465591196E+06     -0.624405675854E-01      0.208803825253E-01
     2      0.194892795363E+09      0.397800000000E+34      0.139841390622E+14     -0.533636466386E+13     -0.353924049220E+06     -0.927476578103E+06     -0.615126777033E-01      0.234733134600E-01
     2      0.195523515363E+09      0.397800000000E+34      0.137487498787E+14     -0.591650644058E+13     -0.392400539828E+06     -0.911864862239E+06     -0.604771638464E-01      0.260251682925E-01
     2      0.196154235363E+09      0.397800000000E+34      0.134893057042E+14     -0.648629721745E+13     -0.430190458807E+06     -0.894657762543E+06     -0.593358379697E-01      0.285314818388E-01
     2      0.196784955363E+09      0.397800000000E+34      0.132062604798E+14     -0.704474009950E+13     -0.467227688260E+06     -0.875885389533E+06     -0.580906972213E-01      0.309878685756E-01
     2      0.197415675363E+09      0.397800000000E+34      0.129001094395E+14     -0.759085804927E+13     -0.503447427397E+06     -0.855580592632E+06     -0.567439204526E-01      0.333900303200E-01
     2      0.198046395363E+09      0.397800000000E+34      0.125713882433E+14     -0.812369559643E+13     -0.538786305954E+06     -0.833778902704E+06     -0.552978644091E-01      0.357337637577E-01
     2      0.198677115363E+09      0.397800000000E+34      0.122206720401E+14     -0.864232050966E+13     -0.573182495112E+06     -0.810518469885E+06     -0.537550596091E-01      0.380149678048E-01
     2      0.199307835363E+09      0.397800000000E+34      0.118485744611E+14     -0.914582542788E+13     -0.606575815721E+06     -0.785839996833E+06     -0.521182059184E-01      0.402296507912E-01
     2      0.199938555363E+09      0.397800000000E+34      0.114557465459E+14     -0.963332944797E+13     -0.638907843633E+06     -0.759786667502E+06     -0.503901678270E-01      0.423739374531E-01
     2      0.200569275363E+09      0.397800000000E+34      0.110428756034E+14     -0.101039796662E+14     -0.670122011974E+06     -0.732404071573E+06     -0.485739694377E-01      0.444440757219E-01
     2      0.201199995363E+09      0.397800000000E+34      0.106106840085E+14     -0.105569526705E+14     -0.700163710162E+06     -0.703740124666E+06     -0.466727891738E-01      0.464364432972E-01
     2      0.201830715363E+09      0.397800000000E+34      0.101599279387E+14     -0.109914559814E+14     -0.728980379495E+06     -0.673844984486E+06     -0.446899542167E-01      0.483475539932E-01
     2      0.202461435363E+09      0.397800000000E+34      0.969139605008E+13     -0.114067294388E+14     -0.756521605157E+06     -0.642770963026E+06     -0.426289346821E-01      0.501740638471E-01
     2      0.203092155363E+09      0.397800000000E+34      0.920590809728E+13     -0.118020465318E+14     -0.782739204470E+06     -0.610572435014E+06     -0.404933375449E-01      0.519127769777E-01
     2      0.203722875363E+09      0.397800000000E+34      0.870431349898E+13     -0.121767156698E+14     -0.807587311232E+06     -0.577305742725E+06     -0.382869003243E-01      0.535606511854E-01
     2      0.204353595363E+09      0.397800000000E+34      0.818748985121E+13     -0.125300813931E+14     -0.831022456002E+06     -0.543029097367E+06     -0.360134845396E-01      0.551148032831E-01
     2      0.204984315363E+09      0.397800000000E+34      0.765634139146E+13     -0.128615255193E+14     -0.853003642193E+06     -0.507802477173E+06     -0.336770689477E-01      0.565725141474E-01
     2      0.205615035363E+09      0.397800000000E+34      0.711179741620E+13     -0.131704682247E+14     -0.873492417830E+06     -0.471687522411E+06     -0.312817425757E-01      0.579312334837E-01
     2      0.206245755363E+09      0.397800000000E+34      0.655481065447E+13     -0.134563690593E+14     -0.892452942846E+06     -0.434747427475E+06     -0.288316975589E-01      0.591885842946E-01
     2      0.206876475363E+09      0.397800000000E+34      0.598635560047E+13     -0.137187278916E+14     -0.909852051817E+06     -0.397046830249E+06     -0.263312217981E-01      0.603423670444E-01
     2      0.207507195363E+09      0.397800000000E+34      0.540742680807E+13     -0.139570857842E+14     -0.925659312000E+06     -0.358651698956E+06     -0.237846914489E-01      0.613905635131E-01
     2      0.208137915363E+09      0.397800000000E+34      0.481903715022E+13     -0.141710257960E+14     -0.939847076589E+06     -0.319629216661E+06     -0.211965632556E-01      0.623313403317E-01
     2      0.208768635363E+09      0.397800000000E+34      0.422221604630E+13     -0.143601737117E+14     -0.952390533091E+06     -0.280047663652E+06     -0.185713667439E-01      0.631630521936E-01
     2      0.209399355363E+09      0.397800000000E+34      0.361800766051E+13     -0.145241986962E+14     -0.963267746736E+06     -0.239976297904E+06     -0.159136962856E-01      0.638842447367E-01
     2      0.210030075363E+09      0.397800000000E+34      0.300746907447E+13     -0.146628138734E+14     -0.972459698841E+06     -0.199485233823E+06     -0.132282030495E-01      0.644936570892E-01
     2      0.210660795363E+09      0.397800000000E+34      0.239166843723E+13     -0.147757768273E+14     -0.979950320078E+06     -0.158645319494E+06     -0.105195868529E-01      0.649902240774E-01
     2      0.211291515363E+09      0.397800000000E+34      0.177168309594E+13     -0.148628900259E+14     -0.985726518558E+06     -0.117528012645E+06     -0.779258792730E-02      0.653730780893E-01
     2      0.211922235363E+09      0.397800000000E+34      0.114859771041E+13     -0.149240011663E+14     -0.989778202711E+06     -0.762052555451E+05     -0.505197861333E-02      0.656415505918E-01
     2      0.212552955363E+09      0.397800000000E+34      0.523502354953E+12     -0.149590034410E+14     -0.992098298903E+06     -0.347493490555E+05     -0.230255499988E-02      0.657951732986E-01
     2      0.213183675363E+09      0.397800000000E+34     -0.102509389298E+12     -0.149678357236E+14     -0.992682763768E+06      0.676717394819E+04      0.450871478870E-03      0.658336789866E-01
     2      0.213814395363E+09      0.397800000000E+34     -0.728342348097E+12     -0.149504826754E+14     -0.991530591235E+06      0.482716755540E+05      0.320348247287E-02      0.657570019602E-01
     2      0.214445115363E+09      0.397800000000E+34     -0.135290167060E+13     -0.149069747718E+14     -0.988643814220E+06      0.896915399741E+05      0.595046115759E-02      0.655652781608E-01
     2      0.215075835363E+09      0.397800000000E+34     -0.197509474525E+13     -0.148373882480E+14     -0.984027501013E+06      0.130954300664E+06      0.868700067252E-02      0.652588449234E-01
     2      0.215706555363E+09      0.397800000000E+34     -0.259383311170E+13     -0.147418449649E+14     -0.977689746334E+06      0.171987767174E+06      0.114083125418E-01      0.648382403799E-01
     2      0.216337275363E+09      0.397800000000E+34     -0.320803436546E+13     -0.146205121951E+14     -0.969641657089E+06      0.212720151519E+06      0.141096350622E-01      0.643042025096E-01
     2      0.216967995364E+09      0.397800000000E+34     -0.381662405183E+13     -0.144736023294E+14     -0.959897332857E+06      0.253080193830E+06      0.167862416439E-01      0.636576678394E-01
     2      0.217598715364E+09      0.397800000000E+34     -0.441853754595E+13     -0.143013725045E+14     -0.948473841125E+06      0.292997287085E+06      0.194334490894E-01      0.628997697960E-01
     2      0.218229435364E+09      0.397800000000E+34     -0.501272191549E+13     -0.141041241521E+14     -0.935391187337E+06      0.332401600683E+06      0.220466257949E-01      0.620318367123E-01
     2      0.218860155364E+09      0.397800000000E+34     -0.559813776295E+13     -0.138822024704E+14     -0.920672279782E+06      0.371224202663E+06      0.246211998620E-01      0.610553894923E-01
     2      0.219490875364E+09      0.397800000000E+34     -0.617376104410E+13     -0.136359958196E+14     -0.904342889414E+06      0.409397180332E+06      0.271526671031E-01      0.599721389381E-01
     2      0.220121595364E+09      0.397800000000E+34     -0.673858485953E+13     -0.133659350410E+14     -0.886431604651E+06      0.446853759110E+06      0.296365989278E-01      0.587839827447E-01
     2      0.220752315364E+09      0.397800000000E+34     -0.729162121616E+13     -0.130724927028E+14     -0.866969781242E+06      0.483528419373E+06      0.320686500963E-01      0.574930021659E-01
     2      0.221383035364E+09      0.397800000000E+34     -0.783190275557E+13     -0.127561822719E+14     -0.845991487294E+06      0.519357011094E+06      0.344445663254E-01      0.561014583601E-01
     2      0.222013755364E+09      0.397800000000E+34     -0.835848444616E+13     -0.124175572144E+14     -0.823533443543E+06      0.554276866072E+06      0.367601917351E-01      0.546117884196E-01
     2      0.222644475364E+09      0.397800000000E+34     -0.887044523612E+13     -0.120572100268E+14     -0.799634958991E+06      0.588226907572E+06      0.390114761211E-01      0.530266010925E-01
     2      0.223275195364E+09      0.397800000000E+34     -0.936688966452E+13     -0.116757711983E+14     -0.774337862009E+06      0.621147757157E+06      0.411944820420E-01      0.513486722038E-01
     2      0.223905915364E+09      0.397800000000E+34     -0.984694942736E+13     -0.112739081061E+14     -0.747686427033E+06      0.652981838551E+06      0.433053917076E-01      0.495809397837E-01
     2      0.224536635364E+09      0.397800000000E+34     -0.103097848962E+14     -0.108523238479E+14     -0.719727296982E+06      0.683673478333E+06      0.453405136569E-01      0.477264989124E-01
     2      0.225167355364E+09      0.397800000000E+34     -0.107545865862E+14     -0.104117560098E+14     -0.690509401532E+06      0.713169003293E+06      0.472962892141E-01      0.457885962904E-01
     2      0.225798075364E+09      0.397800000000E+34     -0.111805765723E+14     -0.995297537585E+13     -0.660083871394E+06      0.741416834283E+06      0.491692987104E-01      0.437706245425E-01
     2      0.226428795364E+09      0.397800000000E+34     -0.115870098483E+14     -0.947678457801E+13     -0.628503948737E+06      0.768367576392E+06      0.509562674622E-01      0.416761162681E-01
     2      0.227059515364E+09      0.397800000000E+34     -0.119731756307E+14     -0.898401669143E+13     -0.595824893933E+06      0.793974105288E+06      0.526540714941E-01      0.395087378459E-01
     2      0.227690235364E+09      0.397800000000E+34     -0.123383986001E+14     -0.847553377609E+13     -0.562103888760E+06      0.818191649583E+06      0.542597429969E-01      0.372722830052E-01
     2      0.228320955364E+09      0.397800000000E+34     -0.126820400824E+14     -0.795222536786E+13     -0.527399936262E+06      0.840977869069E+06      0.557704755119E-01      0.349706661752E-01
     2      0.228951675364E+09      0.397800000000E+34     -0.130034991651E+14     -0.741500692156E+13     -0.491773757419E+06      0.862292928697E+06      0.571836288309E-01      0.326079156230E-01
     2      0.229582395364E+09      0.397800000000E+34     -0.133022137470E+14     -0.686481820876E+13     -0.455287684822E+06      0.882099568156E+06      0.584967336049E-01      0.301881663940E-01
     2      0.230213115364E+09      0.397800000000E+34     -0.135776615209E+14     -0.630262167306E+13     -0.418005553537E+06      0.900363166953E+06      0.597074956530E-01      0.277156530650E-01
     2      0.230843835364E+09      0.397800000000E+34     -0.138293608857E+14     -0.572940074584E+13     -0.379992589340E+06      0.917051804853E+06      0.608137999633E-01      0.251947023254E-01
     2      0.231474555364E+09      0.397800000000E+34     -0.140568717883E+14     -0.514615812532E+13     -0.341315294539E+06      0.932136317598E+06      0.618137143796E-01      0.226297253971E-01
     2      0.232105275364E+09      0.397800000000E+34     -0.142597964914E+14     -0.455391402202E+13     -0.302041331561E+06      0.945590347796E+06      0.627054929682E-01      0.200252103077E-01
     2      0.232735995364E+09      0.397800000000E+34     -0.144377802686E+14     -0.395370437364E+13     -0.262239404524E+06      0.957390390891E+06      0.634875790565E-01      0.173857140306E-01
     2      0.233366715364E+09      0.397800000000E+34     -0.145905120234E+14     -0.334657903257E+13     -0.221979138995E+06      0.967515836141E+06      0.641586079417E-01      0.147158545055E-01
     2      0.233997435364E+09      0.397800000000E+34     -0.147177248317E+14     -0.273359992912E+13     -0.181330960145E+06      0.975949002527E+06      0.647174092614E-01      0.120203025531E-01
     2      0.234628155364E+09      0.397800000000E+34     -0.148191964081E+14     -0.211583921368E+13     -0.140365969517E+06      0.982675169531E+06      0.651630090249E-01      0.930377369860E-02
     2      0.235258875364E+09      0.397800000000E+34     -0.148947494926E+14     -0.149437738114E+13     -0.991558206204E+05      0.987682602738E+06      0.654946312998E-01      0.657101991872E-02
     2      0.235889595364E+09      0.397800000000E+34     -0.149442521597E+14     -0.870301380817E+12     -0.577725935726E+05      0.990962574206E+06      0.657116995520E-01      0.382682132533E-02
     2      0.236520315364E+09      0.397800000000E+34     -0.149676180477E+14     -0.244702715169E+12     -0.162886690005E+05      0.992509377579E+06      0.658138376369E-01      0.107597780182E-02
     2      0.237151035364E+09      0.397800000000E+34     -0.149648065080E+14      0.381324469377E+12      0.252233985669E+05      0.992320337908E+06      0.658008704393E-01     -0.167669939409E-02
     2      0.237781755364E+09      0.397800000000E+34     -0.149358226755E+14      0.100668529608E+13      0.666910076020E+05      0.990395816177E+06      0.656728241621E-01     -0.442639604608E-02
     2      0.238412475364E+09      0.397800000000E+34     -0.148807174575E+14      0.163028607274E+13      0.108041636553E+06      0.986739208515E+06      0.654299262628E-01     -0.716830339877E-02
     2      0.239043195365E+09      0.397800000000E+34     -0.147995874437E+14      0.225103620440E+13      0.149202970664E+06      0.981356940097E+06      0.650726050378E-01     -0.989762656644E-02
     2      0.239673915365E+09      0.397800000000E+34     -0.146925747356E+14      0.286785010049E+13      0.190103028430E+06      0.974258453754E+06      0.646014888559E-01     -0.126095929162E-01
     2      0.240304635365E+09      0.397800000000E+34     -0.145598666970E+14      0.347964907314E+13      0.230670287448E+06      0.965456193307E+06      0.640174050417E-01     -0.152994604109E-01
     2      0.240935355365E+09      0.397800000000E+34     -0.144016956245E+14      0.408536322338E+13      0.270833809462E+06      0.954965581649E+06      0.633213784124E-01     -0.179625258973E-01
     2      0.241566075365E+09      0.397800000000E+34     -0.142183383403E+14      0.468393331176E+13      0.310523364371E+06      0.942804993633E+06      0.625146294683E-01     -0.205941333249E-01
     2      0.242196795365E+09      0.397800000000E+34     -0.140101157066E+14      0.527431261036E+13      0.349669552995E+06      0.928995723787E+06      0.615985722427E-01     -0.231896818816E-01
     2      0.242827515365E+09      0.397800000000E+34     -0.137773920632E+14      0.585546873274E+13      0.388203928368E+06      0.913561948940E+06      0.605748118134E-01     -0.257446340308E-01
     2      0.243458235365E+09      0.397800000000E+34     -0.135205745892E+14      0.642638543876E+13      0.426059115364E+06      0.896530685806E+06      0.594451414813E-01     -0.282545234376E-01
     2      0.244088955365E+09      0.397800000000E+34     -0.132401125898E+14      0.698606441112E+13      0.463168928438E+06      0.877931743609E+06      0.582115396198E-01     -0.307149627691E-01
     2      0.244719675365E+09      0.397800000000E+34     -0.129364967091E+14      0.753352700035E+13      0.499468487277E+06      0.857797671837E+06      0.568761662021E-01     -0.331216513554E-01
     2      0.245350395365E+09      0.397800000000E+34     -0.126102580716E+14      0.806781593553E+13      0.534894330158E+06      0.836163703202E+06      0.554413590119E-01     -0.354703826982E-01
     2      0.245981115365E+09      0.397800000000E+34     -0.122619673518E+14      0.858799699735E+13      0.569384524823E+06      0.813067691922E+06      0.539096295434E-01     -0.377570518142E-01
     2      0.246611835365E+09      0.397800000000E+34     -0.118922337757E+14      0.909316065093E+13      0.602878776671E+06      0.788550047427E+06      0.522836585995E-01     -0.399776623998E-01
     2      0.247242555365E+09      0.397800000000E+34     -0.115017040541E+14      0.958242363538E+13      0.635318534075E+06      0.762653663601E+06      0.505662915942E-01     -0.421283338056E-01
     2      0.247873275365E+09      0.397800000000E+34     -0.110910612516E+14      0.100549305073E+14      0.666647090654E+06      0.735423843695E+06      0.487605335688E-01     -0.442053078072E-01
     2      0.248503995365E+09      0.397800000000E+34     -0.106610235904E+14      0.105098551358E+14      0.696809684304E+06      0.706908221027E+06      0.468695439298E-01     -0.462049551625E-01
     2      0.249134715365E+09      0.397800000000E+34     -0.102123431946E+14      0.109464021457E+14      0.725753592834E+06      0.677156675631E+06      0.448966309186E-01     -0.481237819424E-01
     2      0.249765435365E+09      0.397800000000E+34     -0.974580477392E+13      0.113638083076E+14      0.753428226027E+06      0.646221246969E+06      0.428452458212E-01     -0.499584356244E-01
     2      0.250396155365E+09      0.397800000000E+34     -0.926222425084E+13      0.117613438715E+14      0.779785213968E+06      0.614156042897E+06      0.407189769300E-01     -0.517057109395E-01
     2      0.251026875365E+09      0.397800000000E+34     -0.876244733375E+13      0.121383138412E+14      0.804778491493E+06      0.581017145004E+06      0.385215432665E-01     -0.533625554605E-01
     2      0.251657595365E+09      0.397800000000E+34     -0.824734803754E+13      0.124940591888E+14      0.828364378601E+06      0.546862510530E+06      0.362567880772E-01     -0.549260749239E-01
     2      0.252288315365E+09      0.397800000000E+34     -0.771782715499E+13      0.128279580060E+14      0.850501656703E+06      0.511751870995E+06      0.339286721128E-01     -0.563935382747E-01
     2      0.252919035365E+09      0.397800000000E+34     -0.717481068142E+13      0.131394265901E+14      0.871151640555E+06      0.475746627749E+06      0.315412667043E-01     -0.577623824266E-01
     2      0.253549755365E+09      0.397800000000E+34     -0.661924819534E+13      0.134279204637E+14      0.890278245777E+06      0.438909744610E+06      0.290987466453E-01     -0.590302167278E-01
     2      0.254180475365E+09      0.397800000000E+34     -0.605211119794E+13      0.136929353257E+14      0.907848051813E+06      0.401305637769E+06      0.266053828960E-01     -0.601948271264E-01
     2      0.254811195365E+09      0.397800000000E+34     -0.547439141435E+13      0.139340079317E+14      0.923830360243E+06      0.363000063183E+06      0.240655351195E-01     -0.612541800274E-01
     2      0.255441915365E+09      0.397800000000E+34     -0.488709905959E+13      0.141507169031E+14      0.938197248336E+06      0.324060001615E+06      0.214836440638E-01     -0.622064258341E-01
     2      0.256072635365E+09      0.397800000000E+34     -0.429126107227E+13      0.143426834630E+14      0.950923617754E+06      0.284553541557E+06      0.188642238036E-01     -0.630499021693E-01
     2      0.256703355365E+09      0.397800000000E+34     -0.368791931915E+13      0.145095720968E+14      0.961987238321E+06      0.244549760214E+06      0.162118538545E-01     -0.637831367686E-01
     2      0.257334075365E+09      0.397800000000E+34     -0.307812877365E+13      0.146510911387E+14      0.971368786781E+06      0.204118602772E+06      0.135311711738E-01     -0.644048500431E-01
     2      0.257964795365E+09      0.397800000000E+34     -0.246295567149E+13      0.147669932799E+14      0.979051880481E+06      0.163330760154E+06      0.108268620615E-01     -0.649139573052E-01
     2      0.258595515365E+09      0.397800000000E+34     -0.184347564675E+13      0.148570760005E+14      0.985023105919E+06      0.122257545479E+06      0.810365397594E-02     -0.653095706550E-01
     2      0.259226235365E+09      0.397800000000E+34     -0.122077185152E+13      0.149211819228E+14      0.989272042099E+06      0.809707694398E+05      0.536630727821E-02     -0.655910005233E-01
     2      0.259856955365E+09      0.397800000000E+34     -0.595933062459E+12      0.149591990852E+14      0.991791278669E+06      0.395426148177E+05      0.261960691932E-02     -0.657577568687E-01
     2      0.260487675365E+09      0.397800000000E+34      0.299482223841E+11      0.149710611376E+14      0.992576428801E+06     -0.195448965218E+04     -0.131645914814E-03     -0.658095500268E-01
     2      0.261118395366E+09      0.397800000000E+34      0.655777693261E+12      0.149567474563E+14      0.991626136784E+06     -0.434479958367E+05     -0.288264218648E-02     -0.657462912099E-01
     2      0.261749115366E+09      0.397800000000E+34      0.128046114151E+13      0.149162831796E+14      0.988942080336E+06     -0.848653629683E+05     -0.562857340264E-02     -0.655680926573E-01
     2      0.262379835366E+09      0.397800000000E+34      0.190290637214E+13      0.148497391629E+14      0.984528967610E+06     -0.126134184391E+06     -0.836464001021E-02     -0.652752674339E-01
     2      0.263010555366E+09      0.397800000000E+34      0.252202511285E+13      0.147572318547E+14      0.978394528911E+06     -0.167182314072E+06     -0.110860597755E-01     -0.648683288796E-01
     2      0.263641275366E+09      0.397800000000E+34      0.313673491615E+13      0.146389230920E+14      0.970549503145E+06     -0.207937992649E+06     -0.137880761335E-01     -0.643479897093E-01
     2      0.264271995366E+09      0.397800000000E+34      0.374596105132E+13      0.144950198170E+14      0.961007619003E+06     -0.248329972812E+06     -0.164659664918E-01     -0.637151607653E-01
     2      0.264902715366E+09      0.397800000000E+34      0.434863838283E+13      0.143257737151E+14      0.949785570937E+06     -0.288287643775E+06     -0.191150504758E-01     -0.629709494244E-01
     2      0.265533435366E+09      0.397800000000E+34      0.494371323191E+13      0.141314807740E+14      0.936902989945E+06     -0.327741154647E+06     -0.217306981000E-01     -0.621166576623E-01
     2      0.266164155366E+09      0.397800000000E+34      0.553014521822E+13      0.139124807664E+14      0.922382409245E+06     -0.366621536469E+06     -0.243083378514E-01     -0.611537797787E-01
     2      0.266794875366E+09      0.397800000000E+34      0.610690907812E+13      0.136691566551E+14      0.906249224868E+06     -0.404860822709E+06     -0.268434646708E-01     -0.600839997874E-01
     2      0.267425595366E+09      0.397800000000E+34      0.667299645659E+13      0.134019339239E+14      0.888531651260E+06     -0.442392168014E+06     -0.293316478192E-01     -0.589091884747E-01
     2      0.268056315366E+09      0.397800000000E+34      0.722741766956E+13      0.131112798329E+14      0.869260671963E+06     -0.479149964990E+06     -0.317685386137E-01     -0.576314001335E-01
     2      0.268687035366E+09      0.397800000000E+34      0.776920343365E+13      0.127977026019E+14      0.848469985455E+06     -0.515069958840E+06     -0.341498780207E-01     -0.562528689760E-01
     2      0.269317755366E+09      0.397800000000E+34      0.829740656018E+13      0.124617505215E+14      0.826195946260E+06     -0.550089359621E+06     -0.364715040939E-01     -0.547760052332E-01
     2      0.269948475366E+09      0.397800000000E+34      0.881110361062E+13      0.121040109946E+14      0.802477501406E+06     -0.584146951954E+06     -0.387293592417E-01     -0.532033909476E-01
     2      0.270579195366E+09      0.397800000000E+34      0.930939651051E+13      0.117251095093E+14      0.777356122367E+06     -0.617183201988E+06     -0.409194973142E-01     -0.515377754653E-01
     2      0.271209915366E+09      0.397800000000E+34      0.979141411908E+13      0.113257085457E+14      0.750875732591E+06     -0.649140361421E+06     -0.430380904951E-01     -0.497820706369E-01
     2      0.271840635366E+09      0.397800000000E+34      0.102563137518E+14      0.109065064172E+14      0.723082630745E+06     -0.679962568404E+06     -0.450814359885E-01     -0.479393457343E-01
     2      0.272471355366E+09      0.397800000000E+34      0.107032826530E+14      0.104682360503E+14      0.694025409812E+06     -0.709595945163E+06     -0.470459624868E-01     -0.460128220930E-01
     2      0.273102075366E+09      0.397800000000E+34      0.111315394169E+14      0.100116637030E+14      0.663754872180E+06     -0.737988692143E+06     -0.489282364108E-01     -0.440058674884E-01
     2      0.273732795366E+09      0.397800000000E+34      0.115403353527E+14      0.953758762521E+13      0.632323940869E+06     -0.765091178533E+06     -0.507249679084E-01     -0.419219902565E-01
     2      0.274363515366E+09      0.397800000000E+34      0.119289557935E+14      0.904683666383E+13      0.599787567056E+06     -0.790856029002E+06     -0.524330166046E-01     -0.397648331695E-01
     2      0.274994235366E+09      0.397800000000E+34      0.122967213453E+14      0.854026881331E+13      0.566202634049E+06     -0.815238206500E+06     -0.540493970895E-01     -0.375381670755E-01
     2      0.275624955366E+09      0.397800000000E+34      0.126429890748E+14      0.801876971615E+13      0.531627857893E+06     -0.838195090972E+06     -0.555712841369E-01     -0.352458843149E-01
     2      0.276255675366E+09      0.397800000000E+34      0.129671536326E+14      0.748325111460E+13      0.496123684764E+06     -0.859686553854E+06     -0.569960176442E-01     -0.328919919242E-01
     2      0.276886395366E+09      0.397800000000E+34      0.132686483117E+14      0.693464925697E+13      0.459752185338E+06     -0.879675028222E+06     -0.583211072832E-01     -0.304806046393E-01
     2      0.277517115366E+09      0.397800000000E+34      0.135469460380E+14      0.637392326096E+13      0.422576946331E+06     -0.898125574460E+06     -0.595442368561E-01     -0.280159377093E-01
     2      0.278147835366E+09      0.397800000000E+34      0.138015602915E+14      0.580205343709E+13      0.384662959369E+06     -0.915005941349E+06     -0.606632683473E-01     -0.255022995360E-01
     2      0.278778555366E+09      0.397800000000E+34      0.140320459568E+14      0.522003957504E+13      0.346076507414E+06     -0.930286622455E+06     -0.616762456642E-01     -0.229440841484E-01
     2      0.279409275366E+09      0.397800000000E+34      0.142380001011E+14      0.462889919596E+13      0.306885048924E+06     -0.943940907723E+06     -0.625813980612E-01     -0.203457635280E-01
     2      0.280039995366E+09      0.397800000000E+34      0.144190626786E+14      0.402966577372E+13      0.267157099958E+06     -0.955944930189E+06     -0.633771432400E-01     -0.177118797971E-01
     2      0.280670715366E+09      0.397800000000E+34      0.145749171600E+14      0.342338692834E+13      0.226962114426E+06     -0.966277707723E+06     -0.640620901209E-01     -0.150470372843E-01
     2      0.281301435366E+09      0.397800000000E+34      0.147052910857E+14      0.281112259460E+13      0.186370362697E+06     -0.974921179736E+06     -0.646350412808E-01     -0.123558944797E-01
     2      0.281932155366E+09      0.397800000000E+34      0.148099565420E+14      0.219394316914E+13      0.145452808779E+06     -0.981860238777E+06     -0.650949950524E-01     -0.964315589552E-02
     2      0.282562875366E+09      0.397800000000E+34      0.148887305601E+14      0.157292763926E+13      0.104280986278E+06     -0.987082756975E+06     -0.654411472824E-01     -0.691356384551E-02
     2      0.283193595367E+09      0.397800000000E+34      0.149414754351E+14      0.949161696667E+12      0.629268733579E+05     -0.990579607271E+06     -0.656728927440E-01     -0.417189015722E-02
     2      0.283824315367E+09      0.397800000000E+34      0.149680989676E+14      0.323735839475E+12      0.214627669201E+05     -0.992344679406E+06     -0.657898262025E-01     -0.142292783210E-02
     2      0.284455035367E+09      0.397800000000E+34      0.149685546245E+14     -0.302256534181E+12     -0.200388437790E+05     -0.992374890637E+06     -0.657917431308E-01      0.132851733219E-02
     2      0.285085755367E+09      0.397800000000E+34      0.149428416204E+14     -0.927721037671E+12     -0.615054038526E+05     -0.990670191162E+06     -0.656786400749E-01      0.407763514270E-02
     2      0.285716475367E+09      0.397800000000E+34      0.148910049192E+14     -0.155156420911E+13     -0.102864419627E+06     -0.987233564241E+06     -0.654507146671E-01      0.681961942052E-02
     2      0.286347195367E+09      0.397800000000E+34      0.148131351554E+14     -0.217269542302E+13     -0.144043585382E+06     -0.982071021012E+06     -0.651083652883E-01      0.954967640399E-02
     2      0.286977915367E+09      0.397800000000E+34      0.147093684756E+14     -0.279002879707E+13     -0.184970909770E+06     -0.975191590022E+06     -0.646521903791E-01      0.122630331309E-01
     2      0.287608635367E+09      0.397800000000E+34      0.145798863008E+14     -0.340248509047E+13     -0.225574841686E+06     -0.966607301467E+06     -0.640829874002E-01      0.149549457851E-01
     2      0.288239355367E+09      0.397800000000E+34      0.144249150089E+14     -0.400899359090E+13     -0.265784395377E+06     -0.956333166199E+06     -0.634017514459E-01      0.176207079932E-01
     2      0.288870075367E+09      0.397800000000E+34      0.142447255392E+14     -0.460849398643E+13     -0.305529274562E+06     -0.944387149506E+06     -0.626096735107E-01      0.202556590559E-01
     2      0.289500795367E+09      0.397800000000E+34      0.140396329186E+14     -0.519993821933E+13     -0.344739995361E+06     -0.930790139732E+06     -0.617081384135E-01      0.228551921009E-01
     2      0.290131515367E+09      0.397800000000E+34      0.138099957107E+14     -0.578229231849E+13     -0.383348007789E+06     -0.915565911782E+06     -0.606987223822E-01      0.254147621422E-01
     2      0.290762235367E+09      0.397800000000E+34      0.135562153894E+14     -0.635453820715E+13     -0.421285815643E+06     -0.898741085577E+06     -0.595831903036E-01      0.279298940311E-01
     2      0.291392955367E+09      0.397800000000E+34      0.132787356363E+14     -0.691567548296E+13     -0.458487094533E+06     -0.880345079531E+06     -0.583634926424E-01      0.303961902867E-01
     2      0.292023675367E+09      0.397800000000E+34      0.129780415653E+14     -0.746472316703E+13     -0.494886807874E+06     -0.860410059129E+06     -0.570417620356E-01      0.328093387908E-01
     2      0.292654395367E+09      0.397800000000E+34      0.126546588743E+14     -0.800072141917E+13     -0.530421320630E+06     -0.838970880706E+06     -0.556203095671E-01      0.351651203334E-01
     2      0.293285115367E+09      0.397800000000E+34      0.123091529262E+14     -0.852273321603E+13     -0.565028510607E+06     -0.816065030506E+06     -0.541016207300E-01      0.374594159971E-01
     2      0.293915835367E+09      0.397800000000E+34      0.119421277600E+14     -0.902984598944E+13     -0.598647877100E+06     -0.791732559147E+06     -0.524883510837E-01      0.396882143660E-01
     2      0.294546555367E+09      0.397800000000E+34      0.115542250347E+14     -0.952117322199E+13     -0.631220646714E+06     -0.766016011594E+06     -0.507833216117E-01      0.418476185465E-01
     2      0.295177275367E+09      0.397800000000E+34      0.111461229074E+14     -0.999585599702E+13     -0.662689876160E+06     -0.738960352765E+06     -0.489895137906E-01      0.439338529893E-01
     2      0.295807995367E+09      0.397800000000E+34      0.107185348474E+14     -0.104530645004E+14     -0.693000551849E+06     -0.710612888902E+06     -0.471100643766E-01      0.459432700979E-01
     2      0.296438715367E+09      0.397800000000E+34      0.102722083884E+14     -0.108919994713E+14     -0.722099686120E+06     -0.681023184846E+06     -0.451482599207E-01      0.478723566144E-01
     2      0.297069435367E+09      0.397800000000E+34      0.980792382163E+13     -0.113118935997E+14     -0.749936409918E+06     -0.650242977356E+06     -0.431075310204E-01      0.497177397703E-01
     2      0.297700155367E+09      0.397800000000E+34      0.932649283118E+13     -0.117120128681E+14     -0.776462061767E+06     -0.618326084619E+06     -0.409914463191E-01      0.514761931908E-01
     2      0.298330875367E+09      0.397800000000E+34      0.882875707453E+13     -0.120916578342E+14     -0.801630272887E+06     -0.585328312132E+06     -0.388037062632E-01      0.531446425441E-01
     2      0.298961595367E+09      0.397800000000E+34      0.831558671087E+13     -0.124501648547E+14     -0.825397048293E+06     -0.551307355086E+06     -0.365481366279E-01      0.547201709238E-01
     2      0.299592315367E+09      0.397800000000E+34      0.778787887933E+13     -0.127869072448E+14     -0.847720843742E+06     -0.516322697455E+06     -0.342286818231E-01      0.562000239558E-01
     2      0.300223035367E+09      0.397800000000E+34      0.724655613014E+13     -0.131012963739E+14     -0.868562638399E+06     -0.480435507947E+06     -0.318493979913E-01      0.575816146209E-01
     2      0.300853755367E+09      0.397800000000E+34      0.669256481136E+13     -0.133927826949E+14     -0.887886003076E+06     -0.443708533006E+06     -0.294144459093E-01      0.588625277840E-01
     2      0.301484475367E+09      0.397800000000E+34      0.612687341389E+13     -0.136608567047E+14     -0.905657163944E+06     -0.406205987055E+06     -0.269280837060E-01      0.600405244226E-01
     2      0.302115195367E+09      0.397800000000E+34      0.555047087785E+13     -0.139050498347E+14     -0.921845061594E+06     -0.367993440161E+06     -0.243946594101E-01      0.611135455465E-01
     2      0.302745915367E+09      0.397800000000E+34      0.496436486318E+13     -0.141249352699E+14     -0.936421405346E+06     -0.329137703340E+06     -0.218186033391E-01      0.620797158019E-01
     2      0.303376635367E+09      0.397800000000E+34      0.436957998749E+13     -0.143201286948E+14     -0.949360722714E+06     -0.289706711674E+06     -0.192044203445E-01      0.629373467541E-01
     2      0.304007355367E+09      0.397800000000E+34      0.376715603426E+13     -0.144902889653E+14     -0.960640403941E+06     -0.249769405475E+06     -0.165566819263E-01      0.636849398423E-01
     2      0.304638075367E+09      0.397800000000E+34      0.315814613455E+13     -0.146351187042E+14     -0.970240741510E+06     -0.209395609679E+06     -0.138800182302E-01      0.643211890016E-01
     2      0.305268795368E+09      0.397800000000E+34      0.254361492536E+13     -0.147543648213E+14     -0.978144964592E+06     -0.168655911702E+06     -0.111791099419E-01      0.648449829481E-01
     2      0.305899515368E+09      0.397800000000E+34      0.192463668791E+13     -0.148478189553E+14     -0.984339268339E+06     -0.127621537951E+06     -0.845868009359E-02      0.652554071215E-01
     2      0.306530235368E+09      0.397800000000E+34      0.130229346908E+13     -0.149153178373E+14     -0.988812837993E+06     -0.863642292298E+05     -0.572348579500E-02      0.655517452837E-01
     2      0.307160955368E+09      0.397800000000E+34      0.677673189242E+12     -0.149567435762E+14     -0.991557867754E+06     -0.449561152379E+05     -0.297830990591E-02      0.657334807696E-01
     2      0.307791675368E+09      0.397800000000E+34      0.518677398919E+11     -0.149720238637E+14     -0.992569574386E+06     -0.346958839438E+04     -0.227952662965E-03      0.658002973876E-01
     2      0.308422395368E+09      0.397800000000E+34     -0.574028925623E+12     -0.149611321007E+14     -0.991846205529E+06      0.380228227966E+05      0.252277672358E-02      0.657520799689E-01
     2      0.309053115368E+09      0.397800000000E+34     -0.119892270498E+13     -0.149240874427E+14     -0.989389042706E+06      0.794485806155E+05      0.526906848865E-02      0.655889145644E-01
     2      0.309683835368E+09      0.397800000000E+34     -0.182172125995E+13     -0.148609547658E+14     -0.985202399020E+06      0.120735265010E+06      0.800612073189E-02      0.653110882886E-01
     2      0.310314555368E+09      0.397800000000E+34     -0.244133592638E+13     -0.147718445525E+14     -0.979293611537E+06      0.161810700268E+06      0.107291478231E-01      0.649190888114E-01
     2      0.310945275368E+09      0.397800000000E+34     -0.305668361766E+13     -0.146569126978E+14     -0.971673028390E+06      0.202603081259E+06      0.134333887788E-01      0.644136034978E-01
     2      0.311575995368E+09      0.397800000000E+34     -0.366668871839E+13     -0.145163602357E+14     -0.962353990600E+06      0.243041099024E+06      0.161141155952E-01      0.637955181980E-01
     2      0.312206715368E+09      0.397800000000E+34     -0.427028496501E+13     -0.143504329873E+14     -0.951352808663E+06      0.283054065490E+06      0.187666415231E-01      0.630659156897E-01
     2      0.312837435368E+09      0.397800000000E+34     -0.486641730989E+13     -0.141594211296E+14     -0.938688733943E+06      0.322572037095E+06      0.213863292695E-01      0.622260737746E-01
     2      0.313468155368E+09      0.397800000000E+34     -0.545404376588E+13     -0.139436586877E+14     -0.924383924915E+06      0.361525937102E+06      0.239685991128E-01      0.612774630340E-01
     2      0.314098875368E+09      0.397800000000E+34     -0.603213722786E+13     -0.137035229496E+14     -0.908463408320E+06      0.399847676396E+06      0.265089369157E-01      0.602217442461E-01
     2      0.314729595368E+09      0.397800000000E+34     -0.659968726830E+13     -0.134394338061E+14     -0.890955035307E+06      0.437470272540E+06      0.290029020235E-01      0.590607654701E-01
